Subject,Block,Trial,Direction,Velocity,BlinkDuration,JumpSize,Response,RT
274,1,1,1,180,144,0,1,0.72339
274,1,2,1,180,123,15,1,0.50144
274,1,3,-1,240,132,-15,1,0.53875
274,1,4,1,180,158,0,1,2.0759
274,1,5,-1,240,125,45,1,0.52044
274,1,6,-1,180,0,0,1,1.1235
274,1,7,-1,180,153,30,1,0.62066
274,1,8,1,180,162,15,0,0.50127
274,1,9,-1,240,162,15,1,0.50138
274,1,10,-1,180,187,45,1,0.50166
274,1,11,-1,180,117,45,1,0.50092
274,1,12,1,240,113,15,1,0.5013
274,1,13,1,180,132,-15,1,0.58136
274,1,14,1,240,0,45,1,0.72884
274,1,15,1,240,136,0,1,3.2089
274,1,16,-1,180,171,30,1,0.50079
274,1,17,-1,180,124,0,1,0.57092
274,1,18,-1,240,159,30,1,2.5469
274,1,19,-1,180,167,-30,0,0.89884
274,1,20,-1,180,154,0,1,0.52857
274,1,21,-1,180,167,-15,1,0.80858
274,1,22,-1,180,157,-45,0,0.56855
274,1,23,-1,180,125,45,1,1.7392
274,1,24,1,180,135,45,1,0.58832
274,1,25,1,180,119,45,1,1.034
274,1,26,1,240,193,-15,1,0.86634
274,1,27,1,240,177,30,1,0.501
274,1,28,1,240,151,45,1,0.50094
274,1,29,-1,240,177,-30,1,0.68178
274,1,30,-1,180,170,-15,0,1.4939
274,1,31,-1,240,133,-45,1,0.5013
274,1,32,1,240,178,0,1,0.50096
274,1,33,1,180,136,0,1,0.95972
274,1,34,-1,180,117,-15,1,0.81949
274,1,35,1,180,129,-15,1,0.84342
274,1,36,-1,240,147,30,0,0.93033
274,1,37,-1,240,0,-30,1,0.50121
274,1,38,-1,180,0,0,1,0.80355
274,1,39,1,180,131,45,1,2.357
274,1,40,1,180,143,-15,1,0.9733
274,1,41,-1,180,164,-45,1,0.63319
274,1,42,1,240,152,-45,1,0.62889
274,1,43,1,180,184,0,1,0.60891
274,1,44,1,240,138,-45,0,0.77912
274,1,45,1,180,32,0,1,2.6669
274,1,46,-1,240,154,15,1,0.57473
274,1,47,1,240,112,-15,0,2.1906
274,1,48,-1,240,143,15,1,0.56685
274,1,49,1,240,170,30,1,0.55082
274,1,50,1,180,189,-30,1,0.50086
274,1,51,-1,240,178,45,1,0.50096
274,1,52,-1,180,164,30,1,0.51871
274,1,53,1,240,147,45,1,0.50115
274,1,54,-1,180,128,15,1,2.9763
274,1,55,1,180,212,-30,1,0.97674
274,1,56,1,180,158,-30,1,0.50094
274,1,57,1,180,155,-15,1,0.72979
274,1,58,-1,180,158,-30,1,0.69394
274,1,59,-1,240,174,-45,0,0.58388
274,1,60,-1,240,200,-15,1,0.50093
274,1,61,-1,240,239,0,1,0.56217
274,1,62,1,180,198,15,1,0.56544
274,1,63,1,180,142,30,0,0.93182
274,1,64,1,240,136,0,1,0.51654
274,1,65,1,240,114,-30,0,0.65943
274,1,66,1,240,146,15,1,2.8994
274,1,67,1,180,182,45,1,0.60004
274,1,68,-1,240,121,45,1,0.66949
274,1,69,-1,240,8,30,1,2.8089
274,1,70,1,240,136,15,1,0.78485
274,1,71,-1,240,230,-45,0,0.90531
274,1,72,1,240,234,15,1,0.80277
274,1,73,1,240,0,-30,1,0.84493
274,1,74,-1,240,236,-30,1,3.7966
274,1,75,-1,180,133,15,1,0.50125
274,1,76,-1,240,146,0,1,0.80429
274,1,77,-1,240,214,-15,1,0.54257
274,1,78,-1,180,129,15,1,0.50114
274,1,79,1,180,139,30,1,0.55471
274,1,80,-1,240,122,45,1,1.8127
274,1,81,-1,180,123,0,1,0.59281
274,1,82,-1,240,136,0,1,0.59894
274,1,83,-1,240,136,-15,0,0.67849
274,1,84,-1,240,149,0,1,0.50086
274,1,85,-1,240,163,-30,1,0.66216
274,1,86,1,180,308,-45,1,0.67025
274,1,87,-1,240,139,30,1,0.67266
274,1,88,1,240,0,30,1,0.69649
274,1,89,-1,180,125,-45,0,0.75226
274,1,90,-1,180,152,-30,1,0.77033
274,1,91,1,240,150,-30,1,0.59038
274,1,92,-1,240,211,15,1,1.0463
274,1,93,1,240,167,-45,0,1.0797
274,1,94,1,240,206,30,1,0.68992
274,1,95,-1,240,118,45,1,0.50127
274,1,96,-1,240,0,-45,1,0.61563
274,1,97,1,180,154,30,1,0.5438
274,1,98,-1,180,0,15,1,0.636
274,1,99,-1,180,222,-45,0,0.66764
274,1,100,-1,180,139,45,1,0.50098
274,1,101,-1,240,177,-15,1,0.77146
274,1,102,1,240,193,0,0,1.0269
274,1,103,1,180,15,30,1,0.57345
274,1,104,-1,180,198,-30,1,0.54733
274,1,105,1,180,234,15,1,1.1931
274,1,106,1,240,126,0,1,3.5506
274,1,107,1,240,194,15,1,0.61483
274,1,108,1,240,159,-15,0,0.98065
274,1,109,-1,240,133,45,1,0.50091
274,1,110,-1,240,0,0,1,1.5865
274,1,111,-1,180,97,-30,1,0.50103
274,1,112,-1,240,124,-15,1,0.50086
274,1,113,1,180,165,-15,1,0.61038
274,1,114,-1,180,174,-15,1,0.50113
274,1,115,1,180,163,0,1,0.59017
274,1,116,-1,180,0,-30,1,0.80784
274,1,117,1,180,128,-30,0,2.8803
274,1,118,-1,240,149,-45,0,0.50095
274,1,119,-1,240,133,-15,1,2.7207
274,1,120,1,180,154,45,1,0.5013
274,1,121,-1,180,135,15,1,0.53829
274,1,122,-1,240,121,30,0,0.62416
274,1,123,-1,180,163,30,1,0.50111
274,1,124,-1,240,164,-30,0,2.9592
274,1,125,-1,240,37,-30,0,4.6552
274,1,126,1,180,173,-45,1,4.5912
274,1,127,-1,180,124,45,1,0.50101
274,1,128,1,240,105,30,1,2.3567
274,1,129,-1,180,152,0,1,0.50718
274,1,130,1,240,76,-30,0,3.3426
274,1,131,1,180,175,-45,0,0.77652
274,1,132,-1,180,156,15,1,0.5011
274,1,133,1,240,117,-45,1,0.58683
274,1,134,-1,240,131,0,1,0.50091
274,1,135,-1,240,0,30,1,2.5642
274,1,136,-1,240,158,45,1,3.7705
274,1,137,1,180,138,0,1,1.1122
274,1,138,-1,240,169,0,1,0.52221
274,1,139,1,180,138,15,1,0.50128
274,1,140,-1,180,124,0,1,0.56826
274,1,141,1,180,109,-45,0,0.50097
274,1,142,-1,180,161,-15,1,0.50081
274,1,143,-1,180,141,-45,0,3.5541
274,1,144,1,180,128,-30,0,2.5437
274,1,145,-1,240,160,-45,0,0.66967
274,1,146,1,180,175,-45,0,0.50137
274,1,147,1,240,125,45,1,0.52374
274,1,148,-1,180,117,-45,1,0.50104
274,1,149,1,240,161,-15,1,2.1292
274,1,150,-1,180,133,30,1,0.51451
274,1,151,1,240,109,0,1,3.0352
274,1,152,1,180,118,-30,0,0.50082
274,1,153,1,180,133,45,1,2.1689
274,1,154,1,240,124,30,1,2.4309
274,1,155,-1,240,130,15,1,0.59663
274,1,156,1,180,112,-45,0,2.2149
274,1,157,-1,180,124,30,0,0.50098
274,1,158,1,180,124,-30,1,2.4746
274,1,159,1,180,136,-15,1,0.50129
274,1,160,-1,180,136,0,1,0.50097
274,1,161,1,240,187,30,1,0.50087
274,1,162,-1,240,178,0,1,0.68852
274,1,163,1,240,156,-45,0,0.51696
274,1,164,-1,180,307,30,1,0.65833
274,1,165,1,240,167,-30,1,4.1981
274,1,166,1,180,178,30,1,0.73226
274,1,167,-1,240,21,30,1,1.0401
274,1,168,1,240,145,-45,0,1.2297
274,1,169,1,180,136,-15,1,0.55794
274,1,170,-1,180,152,15,1,0.57621
274,1,171,-1,240,140,-45,0,0.64968
274,1,172,1,240,248,-15,1,0.50154
274,1,173,1,180,164,-15,1,0.52462
274,1,174,-1,180,218,30,1,0.5015
274,1,175,-1,180,153,-45,0,0.63553
274,1,176,1,240,149,15,1,0.66155
274,1,177,-1,180,177,15,1,0.50103
274,1,178,-1,180,132,-45,0,2.5394
274,1,179,1,240,150,-15,1,1.0759
274,1,180,1,180,145,15,1,1.0328
274,1,181,1,180,152,-15,1,0.56577
274,1,182,1,180,154,30,1,0.50123
274,1,183,-1,180,161,-15,1,0.63704
274,1,184,-1,240,127,-30,0,0.70684
274,1,185,1,240,135,-45,0,0.50456
274,1,186,-1,240,125,15,1,0.5008
274,1,187,-1,240,277,-30,1,0.50122
274,1,188,-1,180,191,15,1,0.50111
274,1,189,1,240,161,-15,1,0.54858
274,1,190,1,180,120,0,1,0.54455
274,1,191,1,240,127,45,1,0.50107
274,1,192,1,240,115,45,1,2.5324
274,1,193,1,180,135,30,1,0.84994
274,1,194,-1,180,150,45,1,0.50117
274,1,195,1,180,109,30,1,0.50097
274,1,196,1,180,154,-15,1,0.50126
274,1,197,1,240,147,15,1,0.50092
274,1,198,1,240,162,-30,1,0.50116
274,1,199,-1,180,417,-30,1,0.66025
274,1,200,-1,240,231,-15,1,1.1796
274,1,201,1,240,235,0,0,1.4477
274,1,202,-1,180,115,-15,1,0.54925
274,1,203,1,180,0,-30,1,0.6476
274,1,204,1,240,0,30,1,0.81978
274,1,205,-1,240,130,45,1,0.58975
274,1,206,-1,240,124,-30,1,0.50084
274,1,207,-1,180,141,-15,1,0.50091
274,1,208,-1,180,141,45,1,0.70048
274,1,209,1,180,127,45,1,0.501
274,1,210,1,240,121,-15,1,0.87254
274,1,211,-1,180,122,45,1,0.50117
274,1,212,1,240,119,15,1,2.8799
274,1,213,-1,180,147,-30,0,1.1098
274,1,214,-1,240,123,15,1,0.50101
274,1,215,-1,240,154,-45,0,0.57993
274,1,216,-1,240,147,30,1,0.86372
274,1,217,-1,240,123,-45,0,0.61647
274,1,218,-1,240,168,-15,1,0.54631
274,1,219,1,240,118,15,1,2.3815
274,1,220,1,240,117,-45,0,0.50121
274,1,221,1,240,133,45,1,3.12
274,1,222,1,240,146,-30,1,0.54578
274,1,223,1,180,112,45,1,2.9935
274,1,224,1,240,149,45,1,0.52168
274,1,225,1,240,126,30,1,0.56745
274,1,226,-1,180,122,-30,1,0.76625
274,1,227,1,180,130,45,1,0.50127
274,1,228,1,240,163,0,1,0.50135
274,1,229,1,180,136,15,1,2.0728
274,1,230,1,240,157,-15,1,0.50126
274,1,231,-1,240,117,-30,1,0.50087
274,1,232,1,180,110,-30,1,0.50089
274,1,233,1,180,171,-30,1,0.66315
274,1,234,1,180,130,15,1,0.52684
274,1,235,-1,240,128,45,1,3.1043
274,1,236,1,180,136,30,1,3.2207
274,1,237,-1,180,0,-45,0,0.98019
274,1,238,-1,240,128,0,1,0.59614
274,1,239,-1,240,112,15,1,0.55675
274,1,240,-1,180,155,30,1,0.50095
274,1,241,1,180,161,15,1,0.50116
274,1,242,-1,180,164,30,1,2.8577
274,1,243,1,240,160,30,1,0.50088
274,1,244,-1,240,167,-15,1,0.50086
274,1,245,1,240,133,0,1,2.9495
274,1,246,1,240,214,-30,0,0.9034
274,1,247,-1,240,140,45,1,0.57866
274,1,248,-1,180,127,0,1,2.5032
274,1,249,-1,240,124,30,1,4.1834
274,1,250,-1,180,127,0,1,0.59393
274,1,251,1,180,130,15,1,0.55994
274,1,252,1,240,121,-45,1,0.77533
274,1,253,1,240,146,45,1,0.68752
274,1,254,1,240,131,-30,0,0.50113
274,1,255,1,240,119,-15,1,0.50138
274,1,256,-1,240,132,30,1,0.50126
274,1,257,1,240,108,0,1,0.50125
274,1,258,1,180,104,-45,0,0.50144
274,1,259,1,240,139,-30,0,0.60296
274,1,260,1,240,172,-45,0,3.3628
274,1,261,-1,240,137,0,1,0.50151
274,1,262,-1,180,121,45,1,0.50151
274,1,263,-1,180,127,15,1,0.50112
274,1,264,1,240,108,45,1,2.8243
274,1,265,1,180,120,-45,0,0.50128
274,1,266,1,180,98,0,1,0.63416
274,1,267,-1,240,143,15,1,0.55412
274,1,268,-1,180,142,45,1,0.50081
274,1,269,1,180,141,0,1,2.9421
274,1,270,1,240,150,15,1,0.50409
274,1,271,-1,180,66,-15,1,0.54251
274,1,272,1,180,0,30,0,0.90391
274,1,273,1,180,113,-45,0,0.5012
274,1,274,-1,180,124,-15,0,0.96982
274,1,275,1,180,124,45,1,0.59838
274,1,276,-1,240,86,15,1,0.501
274,1,277,-1,180,0,-30,1,0.61758
274,1,278,1,180,0,-45,1,0.88123
274,1,279,-1,240,155,-45,0,0.5594
274,1,280,-1,180,137,-45,0,0.59575
274,2,1,1,180,70,15,0,0.71751
274,2,2,-1,240,108,-45,0,0.52302
274,2,3,1,240,0,-15,0,2.7503
274,2,4,-1,180,0,30,1,0.50257
274,2,5,-1,240,0,0,1,0.5565
274,2,6,-1,180,0,45,1,0.56689
274,2,7,1,180,0,0,1,1.2861
274,2,8,-1,240,0,-30,1,1.1339
274,2,9,1,240,0,15,1,0.50096
274,2,10,1,180,0,0,0,1.6018
274,2,11,-1,180,0,-45,0,1.0017
274,2,12,-1,180,0,-15,1,1.464
274,2,13,1,180,0,15,1,0.50096
274,2,14,1,180,0,-45,0,0.57041
274,2,15,1,240,0,15,0,0.93391
274,2,16,1,180,0,-45,0,2.7035
274,2,17,1,240,0,15,0,0.51388
274,2,18,-1,180,0,-15,0,0.50137
274,2,19,1,180,0,0,0,1.8934
274,2,20,1,180,0,30,0,0.50102
274,2,21,-1,180,0,-45,0,0.5158
274,2,22,-1,240,0,15,1,0.50097
274,2,23,1,180,0,-15,0,0.50104
274,2,24,-1,240,0,-15,0,0.50097
274,2,25,-1,180,0,0,1,0.79914
274,2,26,-1,180,0,-15,0,2.4951
274,2,27,-1,180,0,45,1,0.65263
274,2,28,-1,240,0,45,1,3.0451
274,2,29,-1,240,0,0,1,0.57083
274,2,30,-1,180,0,-45,0,0.5013
274,2,31,1,240,0,0,1,0.90838
274,2,32,1,180,0,-30,0,3.4324
274,2,33,1,240,0,45,1,0.54893
274,2,34,-1,180,0,-45,0,0.67271
274,2,35,-1,180,0,0,0,0.7423
274,2,36,1,180,0,0,1,0.90226
274,2,37,-1,180,0,0,1,0.84416
274,2,38,-1,180,0,-15,0,0.50111
274,2,39,1,240,0,30,1,1.1939
274,2,40,1,240,0,15,1,0.5011
274,2,41,1,180,0,45,1,0.50086
274,2,42,-1,180,0,30,1,0.50089
274,2,43,1,180,0,0,0,0.50088
274,2,44,-1,240,0,-45,0,0.50129
274,2,45,-1,240,0,0,1,0.67447
274,2,46,1,180,0,-30,0,0.60378
274,2,47,1,180,0,45,1,2.1434
274,2,48,-1,180,0,-45,0,0.63343
274,2,49,1,240,0,-30,0,2.6036
274,2,50,1,180,0,0,1,1.3037
274,2,51,-1,180,0,0,0,0.53961
274,2,52,-1,180,0,30,1,2.3034
274,2,53,1,240,108,-45,0,0.83718
274,2,54,1,180,0,45,1,2.3026
274,2,55,-1,180,49,45,1,0.65663
274,2,56,1,180,0,-30,0,0.57898
274,2,57,-1,180,0,-45,0,2.3645
274,2,58,1,180,101,-15,0,0.55543
274,2,59,1,180,0,30,1,0.53155
274,2,60,-1,240,0,45,1,2.2207
274,2,61,-1,240,0,-30,0,0.50113
274,2,62,-1,180,0,45,1,2.0941
274,2,63,-1,180,0,-30,0,0.53285
274,2,64,-1,180,0,30,1,0.50103
274,2,65,1,180,0,-15,0,1.7961
274,2,66,1,240,77,-15,0,0.62052
274,2,67,1,240,0,-45,0,2.5978
274,2,68,-1,240,0,30,1,2.4383
274,2,69,-1,240,0,-15,0,1.046
274,2,70,1,180,0,45,1,2.0774
274,2,71,1,180,0,0,0,1.0876
274,2,72,1,180,0,30,1,0.50088
274,2,73,1,180,0,0,1,1.1233
274,2,74,1,180,0,-45,0,0.62181
274,2,75,-1,180,0,-15,0,0.50118
274,2,76,-1,180,0,45,1,0.50101
274,2,77,-1,180,0,45,1,0.58589
274,2,78,1,240,0,0,0,0.80755
274,2,79,-1,180,111,-45,0,0.5715
274,2,80,1,180,0,30,1,3.4831
274,2,81,-1,240,0,15,1,2.2107
274,2,82,-1,240,0,-15,0,0.60912
274,2,83,-1,240,0,15,1,0.68929
274,2,84,1,180,0,-15,0,0.50106
274,2,85,1,240,0,0,1,1.0187
274,2,86,-1,180,0,-30,0,0.50091
274,2,87,-1,180,0,-30,0,2.1025
274,2,88,1,240,0,-30,0,0.51104
274,2,89,-1,240,115,-30,0,0.82642
274,2,90,1,240,0,0,1,1.0564
274,2,91,-1,180,0,-15,0,0.50115
274,2,92,-1,180,0,15,1,0.50112
274,2,93,-1,180,0,15,1,1.9662
274,2,94,1,180,0,15,1,2.2499
274,2,95,1,240,85,45,1,0.50087
274,2,96,1,180,0,45,1,2.0217
274,2,97,-1,240,0,30,1,0.50084
274,2,98,-1,240,65,0,0,1.4579
274,2,99,1,240,0,0,1,0.74355
274,2,100,-1,240,0,-30,0,2.8623
274,2,101,1,240,0,15,1,0.77741
274,2,102,1,240,0,-30,0,1.9218
274,2,103,-1,240,132,45,1,0.92993
274,2,104,-1,180,0,45,1,0.62978
274,2,105,1,240,0,30,1,0.50154
274,2,106,-1,240,0,45,1,0.50127
274,2,107,1,240,0,-15,0,0.5397
274,2,108,1,180,0,15,1,0.50125
274,2,109,-1,180,0,30,1,1.5273
274,2,110,1,240,0,-30,0,0.50081
274,2,111,1,180,0,-45,0,0.82705
274,2,112,-1,180,0,15,1,0.5008
274,2,113,-1,180,0,0,1,0.59073
274,2,114,-1,240,0,45,1,0.50117
274,2,115,-1,180,15,15,1,0.50081
274,2,116,-1,240,0,15,1,0.50113
274,2,117,-1,240,0,0,0,0.75661
274,2,118,-1,180,70,30,1,0.5009
274,2,119,1,240,110,30,1,0.50117
274,2,120,1,240,61,45,1,0.50094
274,2,121,1,240,82,-30,0,0.50089
274,2,122,1,240,97,45,1,0.63803
274,2,123,-1,240,56,-15,0,0.64008
274,2,124,-1,240,129,30,1,0.64113
274,2,125,1,240,122,-15,0,0.56152
274,2,126,1,180,91,45,1,0.5011
274,2,127,-1,180,15,30,1,0.50108
274,2,128,-1,240,112,0,1,0.60024
274,2,129,1,240,5,-15,0,0.50109
274,2,130,-1,240,94,30,1,1.9716
274,2,131,1,240,139,30,1,0.75001
274,2,132,-1,180,0,0,0,0.72744
274,2,133,1,180,0,0,1,0.52974
274,2,134,-1,180,0,-30,0,0.50118
274,2,135,1,240,0,-45,0,0.57798
274,2,136,1,180,0,-30,0,0.50376
274,2,137,1,240,0,0,1,0.50104
274,2,138,1,180,0,-15,0,0.50104
274,2,139,1,240,0,15,0,0.67121
274,2,140,1,180,0,30,0,0.50113
274,2,141,1,240,0,0,0,0.56542
274,2,142,-1,240,0,-30,0,0.50105
274,2,143,1,180,164,15,1,1.409
274,2,144,1,180,155,-30,0,0.50109
274,2,145,-1,240,0,0,1,0.53974
274,2,146,1,240,0,-15,0,0.50137
274,2,147,-1,180,0,-15,0,1.6831
274,2,148,1,180,0,45,1,0.5056
274,2,149,-1,180,0,45,1,0.59111
274,2,150,-1,180,0,-45,0,0.50096
274,2,151,1,240,0,-45,0,0.54282
274,2,152,-1,240,0,-15,0,0.50871
274,2,153,1,180,0,15,1,0.65244
274,2,154,-1,240,0,-30,0,0.50098
274,2,155,1,180,0,-15,0,0.50137
274,2,156,-1,240,0,45,1,0.50159
274,2,157,-1,240,0,-30,0,0.50082
274,2,158,1,180,0,-30,0,0.50127
274,2,159,1,180,0,15,1,0.50139
274,2,160,-1,240,0,-15,0,0.50637
274,2,161,1,240,0,-15,0,0.50084
274,2,162,-1,240,0,30,1,0.56817
274,2,163,1,240,0,-30,0,0.77584
274,2,164,1,180,0,-15,0,1.8238
274,2,165,1,240,0,45,1,0.52803
274,2,166,1,240,0,-45,0,0.50082
274,2,167,1,180,0,45,1,0.58355
274,2,168,-1,180,0,-15,1,0.71538
274,2,169,-1,240,0,0,0,0.52842
274,2,170,1,180,0,-30,0,0.50616
274,2,171,1,240,0,-45,1,0.57941
274,2,172,-1,240,0,15,1,0.54564
274,2,173,-1,240,0,-15,0,0.50152
274,2,174,-1,240,151,0,1,0.60551
274,2,175,1,240,0,-30,0,2.0772
274,2,176,-1,180,0,-30,0,0.50156
274,2,177,-1,180,0,30,1,0.50082
274,2,178,-1,240,118,30,1,0.50372
274,2,179,-1,240,0,-45,0,0.54737
274,2,180,-1,180,0,0,1,0.68701
274,2,181,1,240,0,-30,0,0.74502
274,2,182,1,240,0,30,1,0.50092
274,2,183,-1,240,0,-45,0,0.61661
274,2,184,1,240,0,45,1,0.65857
274,2,185,-1,240,0,-45,0,0.53115
274,2,186,-1,180,0,45,1,2.202
274,2,187,-1,240,0,-45,0,0.60644
274,2,188,-1,240,0,15,1,0.56027
274,2,189,-1,240,0,-45,0,0.57844
274,2,190,1,180,188,45,1,0.50123
274,2,191,1,240,0,0,0,0.65386
274,2,192,1,180,0,30,1,0.50134
274,2,193,1,180,0,-45,0,0.50127
274,2,194,-1,240,0,15,1,0.50093
274,2,195,1,240,0,30,1,0.50231
274,2,196,-1,240,0,45,1,2.432
274,2,197,-1,240,222,30,1,1.0358
274,2,198,1,240,0,-45,0,0.50127
274,2,199,-1,180,0,-30,0,0.5245
274,2,200,1,180,0,30,1,0.50082
274,2,201,1,180,0,-45,0,2.0994
274,2,202,-1,180,0,30,1,0.5018
274,2,203,1,240,0,-30,0,0.50145
274,2,204,1,180,0,-15,0,0.52249
274,2,205,-1,240,0,-45,0,0.51999
274,2,206,-1,240,0,15,1,0.61125
274,2,207,1,180,0,-15,0,0.50131
274,2,208,1,240,0,-15,0,1.7995
274,2,209,1,180,111,15,1,0.50111
274,2,210,1,180,0,0,0,0.52586
274,2,211,1,240,0,45,1,0.57708
274,2,212,-1,240,0,-30,0,0.59278
274,2,213,1,240,178,45,1,0.50131
274,2,214,1,240,0,-30,0,1.9609
274,2,215,-1,180,0,30,1,0.89431
274,2,216,1,240,0,30,1,0.60099
274,2,217,1,240,0,-15,0,0.6085
274,2,218,-1,240,0,-15,0,0.51275
274,2,219,-1,180,0,-15,0,1.7862
274,2,220,1,240,0,15,1,2.0401
274,2,221,-1,180,0,0,0,0.50121
274,2,222,-1,240,0,15,1,0.53937
274,2,223,-1,240,0,30,1,0.57417
274,2,224,1,240,0,-45,0,0.50129
274,2,225,1,180,0,15,1,0.62038
274,2,226,-1,180,0,15,1,0.61692
274,2,227,-1,240,0,45,1,0.50131
274,2,228,-1,240,0,-15,0,2.3798
274,2,229,1,180,0,30,1,0.75375
274,2,230,-1,180,0,15,1,0.53819
274,2,231,-1,240,42,0,0,0.50106
274,2,232,-1,180,0,-30,0,1.0078
274,2,233,1,240,160,15,1,0.50085
274,2,234,1,180,103,-45,0,0.51534
274,2,235,1,240,0,30,1,0.52333
274,2,236,1,240,0,-45,0,0.50097
274,2,237,1,180,0,-30,0,1.6197
274,2,238,-1,240,0,-30,0,0.54587
274,2,239,1,240,0,30,1,0.50105
274,2,240,1,180,0,-45,0,0.50089
274,2,241,-1,180,0,-15,1,2.3189
274,2,242,-1,180,0,-45,0,0.61261
274,2,243,-1,180,0,45,1,0.71868
274,2,244,1,180,0,30,1,0.59677
274,2,245,1,240,0,-15,0,0.55077
274,2,246,-1,180,0,-30,0,0.54275
274,2,247,1,180,0,-30,0,0.50106
274,2,248,1,240,0,15,1,0.62273
274,2,249,-1,180,0,15,1,3.3088
274,2,250,-1,180,0,0,0,0.55734
274,2,251,1,240,0,0,1,1.8943
274,2,252,1,180,43,-30,0,0.65197
274,2,253,1,180,0,45,1,0.50082
274,2,254,-1,180,0,-30,0,0.50136
274,2,255,1,180,0,-45,0,2.4998
274,2,256,1,180,0,-15,0,0.85758
274,2,257,-1,240,15,-15,1,1.4676
274,2,258,1,180,0,-45,0,0.69953
274,2,259,1,240,0,30,1,0.6039
274,2,260,-1,240,0,30,1,0.59777
274,2,261,-1,180,0,15,1,0.50103
274,2,262,-1,240,0,30,1,1.6633
274,2,263,-1,180,0,-45,0,0.55757
274,2,264,1,240,0,45,1,0.58118
274,2,265,-1,180,0,15,1,0.501
274,2,266,-1,240,0,-30,0,0.96531
274,2,267,-1,180,0,0,1,0.833
274,2,268,-1,240,0,45,1,0.5008
274,2,269,-1,240,0,45,1,0.63192
274,2,270,-1,180,0,15,1,3.0052
274,2,271,1,180,0,30,1,0.57307
274,2,272,1,180,0,15,1,0.50926
274,2,273,-1,240,0,-45,0,0.61318
274,2,274,1,240,0,45,1,0.50106
274,2,275,1,240,0,15,1,0.50108
274,2,276,-1,240,0,-45,0,0.50103
274,2,277,1,240,0,-45,1,0.93032
274,2,278,-1,240,0,15,1,0.50964
274,2,279,1,240,0,0,0,0.60822
274,2,280,-1,180,0,-30,0,1.5603
274,3,1,-1,240,179,-45,0,1.2478
274,3,2,-1,240,0,45,1,1.3638
274,3,3,-1,240,128,15,1,0.59659
274,3,4,-1,180,132,45,0,0.50131
274,3,5,1,240,125,45,1,1.5839
274,3,6,-1,240,111,15,1,0.66966
274,3,7,1,240,166,-15,0,0.89994
274,3,8,1,180,138,-45,0,0.50114
274,3,9,1,180,131,-45,0,0.50562
274,3,10,1,180,136,-30,1,0.50132
274,3,11,-1,240,142,30,1,0.50127
274,3,12,-1,240,127,-45,0,2.625
274,3,13,1,240,119,15,1,0.5013
274,3,14,-1,180,118,-45,0,1.7652
274,3,15,-1,240,149,45,1,0.60085
274,3,16,-1,240,150,-15,1,0.53721
274,3,17,1,180,83,0,0,0.56506
274,3,18,-1,180,167,0,1,0.79672
274,3,19,-1,180,144,30,1,2.5652
274,3,20,1,180,132,-15,1,0.74263
274,3,21,-1,180,165,-30,0,0.56688
274,3,22,1,180,175,-45,0,0.52072
274,3,23,-1,180,158,-45,0,0.57831
274,3,24,-1,240,120,30,1,0.62624
274,3,25,1,240,111,30,1,1.9004
274,3,26,-1,180,124,-45,0,0.58618
274,3,27,1,180,152,0,0,0.55431
274,3,28,-1,240,139,-45,0,0.546
274,3,29,1,180,104,0,1,0.50094
274,3,30,1,240,148,0,1,0.68372
274,3,31,-1,240,169,-30,0,0.72371
274,3,32,-1,240,151,0,0,0.60998
274,3,33,-1,240,132,15,1,0.50852
274,3,34,-1,240,160,-30,0,0.79987
274,3,35,1,240,130,15,1,0.54956
274,3,36,-1,180,151,15,1,0.51141
274,3,37,-1,240,132,-15,1,0.91526
274,3,38,1,240,112,-15,1,0.53593
274,3,39,-1,180,127,45,1,0.50593
274,3,40,-1,240,172,15,0,1.7011
274,3,41,1,240,144,-45,0,2.0435
274,3,42,1,180,154,-30,0,0.94732
274,3,43,1,240,158,15,1,0.64512
274,3,44,1,180,143,30,1,0.53916
274,3,45,1,240,124,-30,0,0.5593
274,3,46,1,240,145,-30,0,0.50091
274,3,47,1,240,109,-45,0,0.50123
274,3,48,-1,240,120,30,1,1.7427
274,3,49,-1,180,121,45,1,0.5014
274,3,50,-1,240,137,-15,0,0.99422
274,3,51,-1,180,120,45,1,0.7773
274,3,52,-1,240,108,0,1,0.7052
274,3,53,1,240,158,45,1,0.50121
274,3,54,-1,240,163,30,1,2.0441
274,3,55,1,180,185,0,0,0.56225
274,3,56,1,240,28,-15,1,0.70661
274,3,57,1,240,158,-45,0,0.67209
274,3,58,-1,240,164,15,0,0.536
274,3,59,-1,180,175,0,0,0.92777
274,3,60,-1,180,174,45,1,0.50099
274,3,61,1,180,148,15,1,1.4399
274,3,62,-1,180,139,-30,0,0.53598
274,3,63,-1,180,175,30,1,0.50103
274,3,64,1,240,149,30,1,0.50093
274,3,65,1,240,149,15,1,2.0113
274,3,66,1,180,185,-15,1,1.7553
274,3,67,-1,180,137,-30,0,2.6076
274,3,68,-1,240,183,0,1,0.69974
274,3,69,-1,240,140,0,0,1.746
274,3,70,1,180,126,30,1,2.2048
274,3,71,1,240,132,-45,0,2.3551
274,3,72,1,240,127,45,1,3.2626
274,3,73,-1,180,152,-30,0,3.2667
274,3,74,1,180,159,0,1,1.2847
274,3,75,1,240,166,30,1,0.59148
274,3,76,-1,180,161,0,1,1.2384
274,3,77,1,240,178,45,1,0.50086
274,3,78,-1,240,174,15,1,1.0262
274,3,79,1,180,123,-15,0,0.50107
274,3,80,-1,180,168,45,1,0.64031
274,3,81,-1,240,154,-45,0,1.7142
274,3,82,1,180,164,15,0,0.73467
274,3,83,1,240,146,-15,0,0.56018
274,3,84,1,180,155,-15,0,0.50142
274,3,85,1,240,142,-15,0,0.71412
274,3,86,1,240,171,15,1,0.85988
274,3,87,-1,180,191,-15,0,0.67412
274,3,88,-1,240,155,-15,1,0.50107
274,3,89,1,180,129,-30,0,1.8235
274,3,90,-1,180,151,15,1,0.50113
274,3,91,1,180,187,30,1,0.63538
274,3,92,-1,240,164,-30,0,0.50985
274,3,93,1,240,122,30,1,1.8991
274,3,94,1,180,136,30,0,3.092
274,3,95,1,180,131,-15,0,0.50108
274,3,96,1,240,125,0,1,1.7371
274,3,97,1,180,159,30,0,3.6068
274,3,98,1,180,120,45,1,1.4868
274,3,99,-1,180,163,15,0,0.96513
274,3,100,1,180,168,-45,0,1.0066
274,3,101,1,240,109,15,1,0.50112
274,3,102,1,180,120,15,1,1.3184
274,3,103,1,180,143,-15,0,0.85841
274,3,104,1,180,176,45,1,0.6103
274,3,105,-1,180,117,15,0,0.50131
274,3,106,-1,180,120,-30,0,0.7046
274,3,107,1,180,139,-30,0,0.52706
274,3,108,1,240,197,30,1,1.462
274,3,109,1,240,107,30,1,0.71025
274,3,110,1,180,119,15,0,1.0798
274,3,111,1,240,144,30,1,0.62182
274,3,112,-1,180,114,-45,0,0.67789
274,3,113,1,240,131,30,1,0.51177
274,3,114,-1,180,150,0,1,0.92993
274,3,115,-1,180,131,15,0,0.82623
274,3,116,-1,240,145,-45,0,0.56179
274,3,117,-1,180,142,-15,1,0.65583
274,3,118,1,240,119,45,1,0.51973
274,3,119,1,180,159,-30,0,0.51183
274,3,120,1,180,118,45,1,1.9577
274,3,121,-1,180,144,0,1,2.9173
274,3,122,-1,180,122,30,1,0.59952
274,3,123,-1,240,117,0,0,3.1751
274,3,124,-1,180,134,15,1,0.8848
274,3,125,-1,180,119,30,1,0.71147
274,3,126,1,180,111,0,0,0.92676
274,3,127,-1,240,140,45,1,0.50098
274,3,128,1,180,123,30,1,0.50128
274,3,129,1,240,117,-15,0,0.74252
274,3,130,-1,240,128,-30,1,0.71656
274,3,131,-1,180,105,45,1,0.74068
274,3,132,1,180,137,-45,0,0.79444
274,3,133,-1,180,114,15,1,1.9746
274,3,134,1,180,123,-15,0,0.79607
274,3,135,1,240,126,-30,0,0.81209
274,3,136,1,240,152,0,1,0.68459
274,3,137,-1,180,137,30,1,0.85199
274,3,138,-1,240,133,15,1,0.71584
274,3,139,1,240,135,45,1,0.88402
274,3,140,-1,240,111,0,0,0.59395
274,3,141,1,240,128,-15,1,0.66416
274,3,142,1,240,170,-15,0,0.72173
274,3,143,-1,240,139,45,1,0.54645
274,3,144,1,180,104,15,0,0.50171
274,3,145,1,240,117,-45,0,0.50114
274,3,146,-1,180,123,-30,0,1.5375
274,3,147,1,240,122,-15,1,0.50116
274,3,148,-1,180,130,-30,0,0.72353
274,3,149,-1,180,116,0,1,1.7473
274,3,150,1,240,116,-30,0,0.59531
274,3,151,-1,240,144,-45,0,2.2914
274,3,152,1,180,93,45,1,0.50135
274,3,153,1,240,150,-30,0,0.66511
274,3,154,-1,180,135,-15,0,0.9809
274,3,155,1,240,139,-45,0,0.50124
274,3,156,-1,240,128,-45,0,2.4028
274,3,157,-1,240,136,-15,1,1.7651
274,3,158,-1,240,139,-15,1,0.81509
274,3,159,1,180,139,-30,0,0.50123
274,3,160,1,240,131,45,1,0.50108
274,3,161,-1,180,155,-45,0,2.3125
274,3,162,-1,180,155,-15,1,0.50135
274,3,163,1,180,143,30,1,2.7281
274,3,164,-1,180,145,-15,0,0.65651
274,3,165,1,240,133,0,1,0.5009
274,3,166,-1,180,142,-45,0,0.53605
274,3,167,1,240,137,30,1,0.61391
274,3,168,1,180,118,15,0,0.83843
274,3,169,1,240,147,-15,1,0.59802
274,3,170,-1,240,151,-15,0,0.51854
274,3,171,-1,180,136,-15,1,1.9795
274,3,172,-1,240,149,-30,0,0.78191
274,3,173,-1,240,132,0,1,0.76961
274,3,174,-1,180,133,-15,0,0.60567
274,3,175,1,180,178,-45,0,0.55617
274,3,176,1,240,134,-45,0,0.56351
274,3,177,-1,240,125,-30,1,0.50088
274,3,178,1,240,121,0,0,2.2313
274,3,179,-1,180,111,-45,0,0.50105
274,3,180,1,180,135,15,1,0.5009
274,3,181,-1,180,140,15,1,0.63701
274,3,182,-1,180,132,15,0,0.5011
274,3,183,-1,240,115,0,1,0.51355
274,3,184,1,240,122,0,0,0.53897
274,3,185,-1,240,132,30,1,1.6489
274,3,186,1,180,135,30,1,0.66878
274,3,187,1,240,120,0,0,0.5011
274,3,188,-1,180,138,0,1,0.87469
274,3,189,1,180,161,15,1,0.62653
274,3,190,1,180,137,-45,0,0.50091
274,3,191,-1,240,146,-30,0,0.55655
274,3,192,-1,180,119,45,1,0.50091
274,3,193,1,180,149,0,1,0.50128
274,3,194,1,180,162,45,1,0.7883
274,3,195,-1,180,189,-30,0,0.70007
274,3,196,1,180,128,-30,0,1.0882
274,3,197,-1,180,156,-30,0,0.90426
274,3,198,-1,240,123,0,1,2.5059
274,3,199,1,240,119,-30,0,0.51215
274,3,200,-1,180,122,30,1,0.89191
274,3,201,-1,180,163,0,0,0.50112
274,3,202,1,180,196,-15,1,0.52586
274,3,203,1,180,145,-30,0,0.82558
274,3,204,-1,180,142,30,1,0.56659
274,3,205,-1,240,142,-15,1,0.50132
274,3,206,1,240,131,0,0,0.50126
274,3,207,-1,240,136,30,1,0.51583
274,3,208,-1,240,170,-30,0,1.4492
274,3,209,1,240,129,-45,0,0.79939
274,3,210,-1,180,136,-30,0,0.81735
274,3,211,1,180,159,-30,0,0.65041
274,3,212,-1,240,158,-30,0,0.50147
274,3,213,-1,180,138,45,1,1.8341
274,3,214,-1,180,182,0,1,2.2708
274,3,215,1,180,138,30,1,1.4548
274,3,216,-1,180,136,15,0,0.50111
274,3,217,1,180,132,15,1,0.61394
274,3,218,1,180,121,30,1,0.5009
274,3,219,-1,240,132,0,0,2.9677
274,3,220,1,240,140,15,1,0.65763
274,3,221,-1,180,155,45,1,0.50093
274,3,222,-1,240,131,-30,0,2.9314
274,3,223,1,180,145,45,1,0.50091
274,3,224,1,240,127,15,1,0.50088
274,3,225,-1,240,140,-45,0,0.50084
274,3,226,1,180,138,-15,1,0.50098
274,3,227,1,180,111,15,0,2.0771
274,3,228,1,240,116,0,0,3.0594
274,3,229,1,180,125,45,1,0.92518
274,3,230,-1,240,133,45,1,0.59126
274,3,231,1,180,132,45,1,0.56565
274,3,232,-1,240,146,45,1,0.50114
274,3,233,1,240,169,-30,0,0.55673
274,3,234,-1,240,137,-15,1,0.50112
274,3,235,1,180,144,45,1,0.50564
274,3,236,-1,240,162,45,1,0.7307
274,3,237,-1,240,148,30,1,0.5014
274,3,238,1,240,140,-45,0,0.62365
274,3,239,-1,180,138,0,1,0.50134
274,3,240,1,240,134,45,1,0.69648
274,3,241,-1,180,131,30,0,0.58068
274,3,242,1,180,133,-45,0,0.7281
274,3,243,-1,240,133,45,1,0.50161
274,3,244,1,180,106,0,0,1.2319
274,3,245,-1,180,174,-45,0,0.59193
274,3,246,1,180,158,0,1,0.50083
274,3,247,-1,240,118,30,1,1.8833
274,3,248,-1,180,134,30,1,0.50114
274,3,249,1,180,126,-15,0,0.50105
274,3,250,-1,240,133,-15,1,2.5393
274,3,251,1,180,114,-45,0,0.50152
274,3,252,-1,240,118,45,1,1.6537
274,3,253,-1,180,128,-15,1,0.54594
274,3,254,1,240,124,-30,1,0.50139
274,3,255,-1,240,160,-45,0,0.64946
274,3,256,1,240,117,0,1,0.50113
274,3,257,1,240,123,45,1,0.50095
274,3,258,1,180,163,-30,1,0.81701
274,3,259,1,180,127,0,1,0.72522
274,3,260,-1,180,137,-45,0,0.53517
274,3,261,-1,180,142,-45,0,0.82279
274,3,262,1,240,152,-45,0,0.68701
274,3,263,-1,180,158,30,1,0.56882
274,3,264,-1,240,140,30,1,0.50133
274,3,265,-1,240,145,-45,0,0.67252
274,3,266,-1,240,134,15,0,1.0844
274,3,267,-1,180,165,-15,0,0.71859
274,3,268,-1,240,119,15,1,1.6162
274,3,269,1,180,148,45,1,0.96813
274,3,270,1,240,167,-30,0,0.51033
274,3,271,1,240,122,15,1,1.7118
274,3,272,-1,240,185,15,1,0.83988
274,3,273,1,240,178,45,1,0.50093
274,3,274,-1,240,149,30,0,0.58043
274,3,275,1,240,153,-30,0,0.62759
274,3,276,-1,180,158,-15,1,0.50106
274,3,277,1,240,162,30,1,0.54793
274,3,278,1,180,152,-45,0,0.51972
274,3,279,-1,240,129,45,1,1.4938
274,3,280,1,240,138,15,1,0.50111
274,4,1,-1,180,0,-15,0,0.69846
274,4,2,-1,180,0,15,1,1.5381
274,4,3,-1,240,0,15,1,0.50088
274,4,4,1,240,0,15,1,0.53441
274,4,5,1,180,0,-30,0,1.4241
274,4,6,1,240,0,-45,0,2.7679
274,4,7,1,240,0,0,1,1.0318
274,4,8,1,180,0,-15,0,0.50088
274,4,9,1,240,0,30,1,0.50092
274,4,10,1,240,0,-15,0,0.5009
274,4,11,1,180,0,0,1,1.5995
274,4,12,1,180,0,30,1,0.52745
274,4,13,1,240,0,45,1,0.53791
274,4,14,1,180,0,15,1,0.5776
274,4,15,1,240,0,0,0,0.54157
274,4,16,-1,240,0,-45,0,0.50089
274,4,17,1,240,0,15,1,0.50102
274,4,18,1,240,0,-30,0,1.4611
274,4,19,-1,240,0,0,1,0.821
274,4,20,-1,180,0,-15,0,1.9468
274,4,21,1,180,0,0,1,0.65524
274,4,22,-1,180,0,-30,0,1.4769
274,4,23,1,240,0,45,1,0.66279
274,4,24,1,240,0,30,1,0.50089
274,4,25,1,240,0,0,0,0.54087
274,4,26,-1,240,0,30,1,0.79844
274,4,27,1,240,0,45,1,0.67459
274,4,28,-1,240,0,-30,0,0.71439
274,4,29,1,240,0,-30,0,0.50085
274,4,30,1,240,0,-15,0,0.68035
274,4,31,1,180,0,30,1,2.0759
274,4,32,1,240,0,30,1,0.55655
274,4,33,-1,180,0,-15,0,0.5009
274,4,34,-1,240,0,0,1,0.60205
274,4,35,1,240,0,15,1,0.50102
274,4,36,1,180,0,30,1,0.50087
274,4,37,-1,180,0,0,0,0.53819
274,4,38,1,240,0,-15,0,0.50101
274,4,39,-1,240,0,30,1,0.50087
274,4,40,-1,240,0,45,1,0.5299
274,4,41,-1,180,0,-45,0,0.50191
274,4,42,-1,240,0,45,1,1.5495
274,4,43,-1,240,0,0,0,0.62961
274,4,44,-1,240,0,30,1,0.53754
274,4,45,1,240,0,15,1,0.50091
274,4,46,1,240,0,-15,0,0.50122
274,4,47,-1,240,0,30,1,0.59523
274,4,48,-1,180,148,-30,0,0.50098
274,4,49,-1,240,0,0,1,2.2991
274,4,50,-1,180,0,-15,0,1.0812
274,4,51,-1,240,0,-45,0,0.50089
274,4,52,1,180,0,-15,0,0.50136
274,4,53,-1,180,0,-30,0,2.3994
274,4,54,-1,180,0,-30,0,0.69871
274,4,55,-1,180,89,45,1,0.50134
274,4,56,1,240,0,-15,0,0.53137
274,4,57,1,180,0,0,0,0.99542
274,4,58,-1,180,0,-45,0,0.59052
274,4,59,1,180,0,45,1,0.53097
274,4,60,1,180,0,30,1,0.50136
274,4,61,1,240,0,30,1,2.0469
274,4,62,1,240,0,-45,0,2.1703
274,4,63,-1,180,0,0,1,0.53674
274,4,64,-1,240,0,-30,0,0.58397
274,4,65,-1,180,0,15,1,0.82869
274,4,66,-1,240,0,15,1,0.85205
274,4,67,1,180,0,0,0,0.58232
274,4,68,-1,180,165,45,1,0.52684
274,4,69,1,180,0,-15,0,0.79196
274,4,70,-1,180,0,-45,0,0.54673
274,4,71,1,240,144,45,1,0.51825
274,4,72,1,180,0,30,1,0.60784
274,4,73,-1,240,97,0,1,0.74943
274,4,74,-1,180,0,0,0,0.69121
274,4,75,-1,180,0,0,0,0.80723
274,4,76,-1,180,147,45,1,0.50095
274,4,77,1,180,0,-30,0,0.5009
274,4,78,-1,180,0,-45,0,0.72012
274,4,79,1,180,0,45,1,0.50088
274,4,80,-1,240,158,30,1,0.50147
274,4,81,1,180,0,-30,0,0.56279
274,4,82,-1,240,0,0,1,0.60651
274,4,83,-1,180,177,30,1,0.50112
274,4,84,1,240,0,-45,0,0.64874
274,4,85,1,180,0,45,1,0.5009
274,4,86,-1,180,0,-15,0,1.91
274,4,87,-1,180,171,15,1,0.75591
274,4,88,-1,180,0,-45,0,2.9939
274,4,89,1,240,176,-30,0,0.83957
274,4,90,1,240,0,-45,0,0.59809
274,4,91,-1,180,0,30,1,0.63346
274,4,92,-1,240,58,15,1,0.51614
274,4,93,-1,240,169,-45,0,0.50092
274,4,94,1,180,0,-45,0,2.1298
274,4,95,-1,180,0,-30,0,0.5981
274,4,96,-1,240,0,30,1,2.2506
274,4,97,1,240,154,30,1,3.0154
274,4,98,-1,180,63,-30,0,0.74732
274,4,99,1,180,0,-15,0,0.54755
274,4,100,1,180,0,-30,0,2.2433
274,4,101,1,180,0,45,1,0.50163
274,4,102,-1,180,0,0,1,0.60732
274,4,103,1,180,0,-15,0,1.9969
274,4,104,-1,240,159,45,1,0.50093
274,4,105,1,240,0,0,0,0.50139
274,4,106,1,180,0,-30,0,1.6868
274,4,107,-1,180,0,-15,0,1.7817
274,4,108,1,180,0,-15,0,2.0713
274,4,109,1,180,128,-45,0,0.53323
274,4,110,1,240,0,0,1,0.53346
274,4,111,1,180,0,-30,0,1.7951
274,4,112,1,180,0,-45,0,1.7792
274,4,113,1,240,0,0,1,0.6239
274,4,114,1,240,15,-30,0,1.5513
274,4,115,-1,240,169,-45,0,0.60713
274,4,116,-1,240,145,30,1,0.50141
274,4,117,1,240,159,15,1,1.3129
274,4,118,1,240,140,45,1,0.50098
274,4,119,-1,180,0,45,1,0.50086
274,4,120,-1,180,124,-45,0,1.2508
274,4,121,-1,180,133,-15,0,0.67688
274,4,122,-1,180,113,-15,0,1.34
274,4,123,1,180,154,-30,0,0.50083
274,4,124,1,240,0,0,0,0.62028
274,4,125,1,180,0,-30,0,0.50101
274,4,126,-1,180,0,15,1,1.5197
274,4,127,-1,240,0,15,1,0.66438
274,4,128,1,180,170,15,1,0.54001
274,4,129,1,240,0,-45,0,1.5657
274,4,130,1,240,0,-15,0,0.50123
274,4,131,1,240,0,15,1,0.70576
274,4,132,-1,180,0,0,1,0.56809
274,4,133,-1,180,0,0,0,1.4756
274,4,134,-1,240,131,45,1,0.66527
274,4,135,1,240,151,45,1,0.60777
274,4,136,1,240,144,-45,0,0.50104
274,4,137,-1,240,0,15,1,0.51332
274,4,138,1,240,0,45,1,0.68559
274,4,139,1,180,162,-45,0,1.2935
274,4,140,-1,180,0,15,1,0.71152
274,4,141,1,180,0,45,1,0.50083
274,4,142,-1,240,148,-15,0,1.431
274,4,143,-1,240,166,15,1,0.50113
274,4,144,-1,180,0,-15,0,0.591
274,4,145,-1,180,144,45,1,0.59232
274,4,146,1,240,130,-45,0,0.50102
274,4,147,1,180,146,-45,0,0.50089
274,4,148,-1,240,0,0,1,1.6866
274,4,149,1,240,154,-15,0,0.5014
274,4,150,-1,180,0,-30,0,0.50124
274,4,151,1,240,154,-45,0,1.3646
274,4,152,-1,240,166,15,1,1.3884
274,4,153,1,240,183,30,1,0.72844
274,4,154,1,180,156,-15,0,0.50098
274,4,155,1,180,141,30,1,0.5883
274,4,156,-1,180,157,45,1,0.66799
274,4,157,1,180,0,-15,0,0.65203
274,4,158,1,180,147,15,1,0.50103
274,4,159,1,180,0,45,1,0.79795
274,4,160,1,180,137,-45,0,0.50104
274,4,161,1,180,92,45,1,1.2496
274,4,162,1,240,149,-30,0,0.72964
274,4,163,1,180,145,15,1,0.50128
274,4,164,1,240,153,-30,0,0.57191
274,4,165,-1,240,62,0,1,0.50091
274,4,166,-1,240,115,-15,0,1.3616
274,4,167,-1,240,76,15,1,1.3814
274,4,168,-1,240,95,-15,0,0.73925
274,4,169,1,180,0,45,1,1.2211
274,4,170,1,180,147,15,1,0.50119
274,4,171,1,240,137,45,1,1.3709
274,4,172,-1,180,0,45,1,0.68893
274,4,173,-1,180,0,30,1,0.50126
274,4,174,-1,180,0,30,1,0.50086
274,4,175,1,240,163,0,0,0.50299
274,4,176,-1,180,142,-45,0,1.9086
274,4,177,1,180,0,0,1,0.66114
274,4,178,-1,240,0,-30,0,0.6137
274,4,179,1,240,145,-45,0,0.50087
274,4,180,1,240,0,15,0,0.94833
274,4,181,1,180,0,-45,0,0.56922
274,4,182,1,180,0,0,1,0.55262
274,4,183,1,180,0,-45,0,0.5009
274,4,184,1,180,0,0,0,0.74836
274,4,185,1,180,0,0,1,0.59234
274,4,186,-1,240,0,45,1,0.75417
274,4,187,-1,240,145,-15,0,0.50145
274,4,188,-1,180,0,45,1,0.63982
274,4,189,-1,180,144,-30,0,0.50125
274,4,190,-1,240,0,-30,0,0.50125
274,4,191,-1,180,184,30,1,0.50429
274,4,192,-1,240,186,30,1,0.86594
274,4,193,1,240,151,15,1,0.58152
274,4,194,-1,180,177,-15,0,0.5499
274,4,195,-1,240,0,45,1,0.60159
274,4,196,-1,240,132,15,1,1.5095
274,4,197,1,240,0,-15,0,0.87053
274,4,198,-1,180,0,15,1,1.4735
274,4,199,1,180,142,30,1,0.54957
274,4,200,1,240,168,15,1,0.83501
274,4,201,-1,240,0,-30,0,0.67389
274,4,202,-1,240,156,-15,0,0.54803
274,4,203,-1,240,0,-45,0,0.67766
274,4,204,-1,180,134,30,1,1.3912
274,4,205,1,180,0,15,1,0.54732
274,4,206,1,180,0,15,0,0.58924
274,4,207,-1,180,0,15,0,0.50089
274,4,208,-1,180,0,15,1,0.50117
274,4,209,-1,240,0,45,1,0.5009
274,4,210,-1,240,0,-15,0,0.50097
274,4,211,-1,240,0,30,1,0.50137
274,4,212,-1,240,0,-30,0,0.51304
274,4,213,-1,240,0,-15,0,0.5013
274,4,214,-1,240,0,45,1,0.50137
274,4,215,-1,180,0,45,1,0.53102
274,4,216,-1,240,0,-15,0,0.54716
274,4,217,-1,240,0,-30,0,0.77271
274,4,218,-1,240,0,-45,0,0.60415
274,4,219,-1,240,0,-45,0,0.5544
274,4,220,-1,180,0,0,1,0.50136
274,4,221,1,240,0,0,0,0.51606
274,4,222,-1,240,0,-45,0,1.422
274,4,223,-1,240,120,30,1,0.60216
274,4,224,1,180,0,-45,0,1.0834
274,4,225,1,180,131,-15,0,0.68277
274,4,226,1,180,0,15,1,0.50133
274,4,227,-1,180,0,0,1,0.59673
274,4,228,1,180,0,30,1,0.55138
274,4,229,-1,240,0,45,1,0.50113
274,4,230,-1,180,0,-45,0,0.50155
274,4,231,1,240,0,45,1,0.58446
274,4,232,1,180,0,-30,0,0.55629
274,4,233,1,240,0,-15,0,0.59044
274,4,234,-1,240,145,-30,0,0.51025
274,4,235,-1,180,0,30,1,0.55061
274,4,236,-1,180,0,15,1,0.82803
274,4,237,1,240,0,-30,0,0.56813
274,4,238,-1,240,0,-30,0,0.74876
274,4,239,-1,180,33,-30,0,0.5013
274,4,240,-1,180,0,-30,0,1.5917
274,4,241,-1,240,0,-45,0,0.70572
274,4,242,1,240,0,30,1,0.50113
274,4,243,-1,180,0,30,1,0.56051
274,4,244,-1,180,0,-45,0,0.50114
274,4,245,1,180,0,-45,0,1.1035
274,4,246,-1,180,0,15,1,0.50134
274,4,247,1,240,146,-30,0,0.50087
274,4,248,-1,180,170,30,1,0.55596
274,4,249,-1,180,177,30,1,1.433
274,4,250,-1,180,0,-45,0,0.71151
274,4,251,1,240,0,-30,0,0.57888
274,4,252,-1,240,0,-45,0,0.57894
274,4,253,1,180,0,-15,0,0.57339
274,4,254,-1,240,0,0,1,0.60523
274,4,255,1,180,0,45,1,0.50294
274,4,256,1,240,147,30,1,1.3645
274,4,257,-1,240,0,-15,0,0.88445
274,4,258,1,180,163,-30,0,0.59886
274,4,259,-1,240,0,15,1,0.55875
274,4,260,-1,240,0,0,0,0.52342
274,4,261,1,240,0,-45,0,0.56265
274,4,262,-1,240,150,45,1,1.5122
274,4,263,-1,240,146,-15,0,0.50135
274,4,264,1,240,0,-30,0,0.54823
274,4,265,1,180,122,0,1,0.53539
274,4,266,1,240,0,0,0,0.50126
274,4,267,1,180,0,15,1,0.50116
274,4,268,-1,180,0,0,0,0.56239
274,4,269,1,180,0,45,1,0.50098
274,4,270,1,240,150,30,1,1.3757
274,4,271,1,180,140,30,1,0.50137
274,4,272,1,240,176,45,1,0.50132
274,4,273,1,180,0,0,0,0.50399
274,4,274,1,240,161,-15,0,1.6037
274,4,275,1,240,120,15,1,0.50135
274,4,276,1,180,0,15,1,0.50114
274,4,277,-1,240,0,-30,0,1.4612
274,4,278,-1,180,0,45,1,0.52966
274,4,279,1,180,0,30,1,0.50086
274,4,280,1,240,0,30,1,1.4474
283,1,1,1,180,64,15,1,0.81078
283,1,2,-1,180,66,45,0,0.50135
283,1,3,-1,180,118,30,0,3.2564
283,1,4,1,180,133,-45,1,0.94091
283,1,5,-1,180,160,-45,1,2.79
283,1,6,-1,180,113,0,1,0.70383
283,1,7,1,240,127,45,1,4.082
283,1,8,-1,240,129,45,1,2.9213
283,1,9,1,180,116,0,1,2.3778
283,1,10,-1,180,99,-15,0,0.889
283,1,11,1,180,107,-15,1,3.2671
283,1,12,-1,180,160,15,0,0.52584
283,1,13,-1,240,189,-45,0,3.1009
283,1,14,-1,240,104,-30,0,4.6507
283,1,15,-1,180,124,-45,0,0.6147
283,1,16,-1,180,134,15,0,3.9085
283,1,17,-1,180,110,-30,0,0.50136
283,1,18,-1,180,132,45,0,0.77046
283,1,19,-1,240,103,30,0,3.6471
283,1,20,-1,240,88,-15,0,1.0124
283,1,21,-1,240,209,-30,0,0.50103
283,1,22,1,240,147,-30,1,3.4862
283,1,23,1,240,127,-30,1,1.9551
283,1,24,-1,180,115,45,0,1.3602
283,1,25,1,180,163,45,1,3.0397
283,1,26,-1,180,122,0,0,3.1897
283,1,27,1,240,115,30,1,1.7761
283,1,28,-1,180,124,-30,0,1.0003
283,1,29,-1,180,134,-45,0,0.60348
283,1,30,-1,240,131,30,0,0.50129
283,1,31,1,180,218,-45,1,3.5733
283,1,32,1,180,136,-30,1,2.3671
283,1,33,-1,240,158,30,0,0.56716
283,1,34,-1,240,119,30,0,3.1268
283,1,35,1,240,105,-15,1,3.3828
283,1,36,-1,240,153,-15,0,1.2306
283,1,37,1,240,121,0,1,3.2648
283,1,38,1,180,131,-15,1,4.8404
283,1,39,1,180,183,-15,1,1.0844
283,1,40,-1,180,114,30,0,0.74425
283,1,41,-1,180,121,45,0,1.2243
283,1,42,-1,240,146,30,0,3.7882
283,1,43,1,240,149,-15,1,0.65019
283,1,44,1,240,115,30,1,0.50087
283,1,45,-1,180,127,30,0,3.6761
283,1,46,1,180,123,30,1,2.5781
283,1,47,-1,240,142,-15,0,0.54791
283,1,48,-1,240,143,-45,0,3.424
283,1,49,1,180,124,0,1,4.1933
283,1,50,-1,180,109,15,0,0.77153
283,1,51,1,180,117,30,1,3.7058
283,1,52,1,180,157,-30,1,4.4012
283,1,53,-1,240,150,0,0,5.9794
283,1,54,-1,180,117,-45,0,0.65717
283,1,55,1,180,124,0,1,0.50141
283,1,56,-1,180,107,-45,0,2.9308
283,1,57,-1,180,109,-15,0,0.90092
283,1,58,1,180,88,15,1,0.83499
283,1,59,1,240,139,0,1,3.3334
283,1,60,1,180,160,-30,1,3.6527
283,1,61,1,180,134,45,1,5.8924
283,1,62,1,240,123,45,1,2.608
283,1,63,-1,240,120,15,0,0.50117
283,1,64,1,240,117,-15,1,2.2218
283,1,65,-1,240,127,0,0,0.50108
283,1,66,-1,180,110,-30,0,3.9756
283,1,67,1,240,116,-30,1,5.302
283,1,68,-1,240,134,15,0,10.614
283,1,69,-1,180,116,-30,0,3.5397
283,1,70,-1,240,139,45,0,0.50155
283,1,71,-1,240,123,0,0,0.51952
283,1,72,1,180,132,-15,1,2.2589
283,1,73,1,180,124,30,1,0.81133
283,1,74,-1,180,111,45,0,0.50134
283,1,75,-1,240,112,-15,0,0.97981
283,1,76,1,240,132,-15,1,0.50124
283,1,77,-1,180,153,-45,0,0.64457
283,1,78,1,180,121,30,1,4.9845
283,1,79,-1,240,121,0,0,0.50137
283,1,80,-1,180,118,-15,0,2.2566
283,1,81,-1,240,126,45,0,0.71249
283,1,82,1,180,120,15,1,0.50107
283,1,83,-1,180,136,-45,0,0.50113
283,1,84,-1,180,109,15,0,3.4279
283,1,85,1,180,83,0,1,0.55302
283,1,86,1,240,95,0,1,0.50085
283,1,87,-1,240,122,-30,0,0.54205
283,1,88,1,180,0,-45,1,1.1062
283,1,89,1,180,146,-30,1,0.50141
283,1,90,1,240,175,-45,1,0.50133
283,1,91,1,180,146,-15,1,1.7043
283,1,92,1,180,176,-45,1,0.50134
283,1,93,-1,240,139,45,0,0.75787
283,1,94,1,180,129,-30,1,0.84366
283,1,95,-1,180,142,30,0,0.57618
283,1,96,1,240,159,0,1,0.51416
283,1,97,1,240,127,-45,1,0.5013
283,1,98,1,240,125,30,1,0.53971
283,1,99,1,180,105,0,1,2.7913
283,1,100,1,180,141,45,1,0.97399
283,1,101,1,240,136,15,1,3.0111
283,1,102,1,240,119,30,1,3.0929
283,1,103,1,180,71,30,1,2.3887
283,1,104,-1,180,153,0,0,0.50128
283,1,105,1,180,235,-30,1,4.9053
283,1,106,-1,180,142,30,0,4.5946
283,1,107,1,240,121,-45,1,3.9163
283,1,108,1,240,148,-45,1,2.12
283,1,109,1,180,134,0,1,2.3738
283,1,110,1,240,133,-15,1,3.0598
283,1,111,-1,240,150,15,0,0.58615
283,1,112,-1,180,170,-30,0,5.2319
283,1,113,-1,240,139,-30,0,0.70156
283,1,114,1,240,201,-15,1,1.1556
283,1,115,-1,240,122,15,0,0.50109
283,1,116,-1,180,129,0,1,7.7332
283,1,117,-1,180,151,0,0,2.0753
283,1,118,-1,180,155,15,0,0.5009
283,1,119,-1,180,143,15,0,0.5009
283,1,120,-1,180,169,0,0,5.1907
283,1,121,-1,240,182,15,0,0.50089
283,1,122,-1,180,211,-15,0,2.2548
283,1,123,1,180,166,45,1,1.0969
283,1,124,1,240,127,0,1,0.50086
283,1,125,1,240,185,15,1,1.8365
283,1,126,-1,240,220,45,0,1.701
283,1,127,1,240,221,-30,1,2.3362
283,1,128,1,180,176,-15,1,1.3222
283,1,129,-1,180,194,30,0,1.4739
283,1,130,-1,180,253,0,0,1.746
283,1,131,-1,180,242,-45,0,1.388
283,1,132,-1,240,197,-15,0,1.9917
283,1,133,1,240,183,-30,1,1.1498
283,1,134,1,240,277,45,1,1.5304
283,1,135,-1,240,234,-45,0,1.0096
283,1,136,-1,240,270,45,0,0.85539
283,1,137,-1,180,221,45,0,1.1638
283,1,138,1,240,276,45,1,0.99592
283,1,139,-1,240,374,-45,0,0.88751
283,1,140,1,180,334,-45,1,0.94545
283,1,141,-1,180,288,0,0,0.59012
283,1,142,1,240,338,15,1,0.68777
283,1,143,1,240,270,45,1,2.8334
283,1,144,-1,240,261,0,0,0.50107
283,1,145,-1,240,257,0,0,0.79323
283,1,146,1,240,311,-45,1,3.2669
283,1,147,1,240,194,-45,1,0.59105
283,1,148,1,180,341,15,1,0.50088
283,1,149,-1,180,327,-15,0,0.67266
283,1,150,-1,240,366,-45,0,0.74485
283,1,151,1,180,409,30,1,0.57449
283,1,152,-1,240,375,30,0,0.88832
283,1,153,1,240,326,-30,1,0.92031
283,1,154,1,180,256,-15,1,0.74646
283,1,155,1,180,341,45,1,0.68038
283,1,156,-1,180,293,-15,0,0.52911
283,1,157,-1,180,346,-15,0,0.97414
283,1,158,-1,180,286,-30,0,1.2686
283,1,159,1,180,294,15,1,0.50102
283,1,160,1,180,275,30,1,0.62215
283,1,161,1,240,273,45,1,0.53622
283,1,162,1,240,224,-15,1,0.50099
283,1,163,1,240,312,-30,1,3.3376
283,1,164,1,180,268,-45,1,3.9375
283,1,165,-1,180,194,30,0,3.5834
283,1,166,-1,240,165,-30,0,4.3353
283,1,167,-1,180,242,-15,0,0.50129
283,1,168,1,240,195,15,1,2.8796
283,1,169,-1,240,271,-45,0,0.50092
283,1,170,1,240,277,15,1,4.0409
283,1,171,1,240,217,15,1,0.5154
283,1,172,-1,180,226,45,0,0.54742
283,1,173,-1,240,221,-45,0,5.1087
283,1,174,-1,180,248,-30,0,0.77048
283,1,175,1,240,176,30,1,4.9105
283,1,176,-1,240,172,45,0,0.59089
283,1,177,1,240,169,30,1,0.50116
283,1,178,1,240,199,45,1,0.5009
283,1,179,-1,240,218,15,0,4.5421
283,1,180,1,180,143,45,1,3.4101
283,1,181,1,180,178,0,1,3.78
283,1,182,-1,240,167,30,0,2.5838
283,1,183,-1,240,145,-30,0,1.2998
283,1,184,-1,240,225,-45,0,0.50091
283,1,185,-1,180,260,-45,0,3.6274
283,1,186,-1,240,231,0,0,1.9813
283,1,187,1,240,345,-45,1,4.1912
283,1,188,-1,180,176,0,0,0.50115
283,1,189,1,240,216,0,1,3.0993
283,1,190,-1,240,203,-30,0,1.567
283,1,191,1,240,187,15,1,0.5013
283,1,192,-1,240,270,30,0,3.7313
283,1,193,-1,180,283,45,0,0.51542
283,1,194,1,180,266,-30,1,0.50133
283,1,195,-1,180,439,15,0,0.50129
283,1,196,1,240,436,-45,1,0.50134
283,1,197,1,180,501,-30,1,3.4527
283,1,198,1,180,466,-45,1,0.66862
283,1,199,1,240,458,45,1,2.7325
283,1,200,-1,240,257,15,0,0.50098
283,1,201,-1,180,232,30,0,2.6441
283,1,202,-1,180,173,-30,0,0.50101
283,1,203,1,240,207,-45,1,2.5142
283,1,204,1,180,235,15,1,2.96
283,1,205,-1,240,276,-15,0,3.5798
283,1,206,1,180,178,-30,1,0.71762
283,1,207,1,240,363,-15,1,0.50098
283,1,208,-1,240,345,-15,0,3.0636
283,1,209,-1,180,261,-30,0,0.50107
283,1,210,-1,240,237,0,0,3.1872
283,1,211,-1,180,184,15,0,1.2591
283,1,212,1,180,178,15,1,0.50104
283,1,213,-1,240,218,-30,0,3.0531
283,1,214,-1,240,209,15,0,2.2771
283,1,215,1,180,208,-45,1,2.3033
283,1,216,1,240,208,0,1,0.50114
283,1,217,1,180,215,45,1,3.4891
283,1,218,1,180,217,15,1,1.1825
283,1,219,-1,180,171,0,0,0.57736
283,1,220,-1,240,177,-45,0,0.54555
283,1,221,1,180,211,45,1,3.1908
283,1,222,-1,240,222,0,0,3.1027
283,1,223,-1,240,126,30,0,0.50092
283,1,224,1,180,191,-45,1,0.80276
283,1,225,1,180,230,15,1,2.2366
283,1,226,1,180,268,45,1,1.1964
283,1,227,-1,180,297,30,0,0.83408
283,1,228,-1,240,234,0,0,0.63646
283,1,229,1,180,266,30,1,0.55297
283,1,230,1,180,291,-15,1,0.55198
283,1,231,1,180,250,45,1,0.69626
283,1,232,1,240,233,-15,1,0.50145
283,1,233,-1,240,278,-15,0,0.53173
283,1,234,-1,180,240,-15,0,0.73983
283,1,235,1,240,163,-30,1,0.58973
283,1,236,1,240,253,15,1,2.3019
283,1,237,1,180,199,30,1,1.6752
283,1,238,-1,240,266,-45,0,0.51822
283,1,239,-1,180,213,15,0,4.7014
283,1,240,-1,180,195,45,0,0.7992
283,1,241,-1,180,153,-30,0,0.63525
283,1,242,1,240,192,-15,1,1.2273
283,1,243,1,240,167,30,1,0.63113
283,1,244,-1,180,232,-45,0,4.4088
283,1,245,-1,240,151,45,0,3.5469
283,1,246,1,180,200,-30,1,2.9523
283,1,247,1,180,187,-45,1,1.3469
283,1,248,1,240,229,30,1,3.1327
283,1,249,-1,240,271,15,0,0.85436
283,1,250,1,240,245,-30,1,0.94082
283,1,251,-1,240,295,15,0,0.50125
283,1,252,-1,240,342,-15,0,3.3104
283,1,253,-1,240,210,30,0,1.274
283,1,254,-1,180,182,45,0,1.0839
283,1,255,1,180,159,-15,1,1.1238
283,1,256,1,180,117,15,1,3.1678
283,1,257,1,240,184,15,1,1.0899
283,1,258,1,180,171,0,1,4.0076
283,1,259,1,180,143,0,1,3.8417
283,1,260,-1,180,189,30,0,1.2233
283,1,261,-1,240,180,-30,0,0.78504
283,1,262,-1,240,172,-15,0,5.2354
283,1,263,1,240,145,-45,1,2.7252
283,1,264,-1,240,168,-30,0,4.1911
283,1,265,-1,180,0,15,0,4.077
283,1,266,1,240,274,45,1,3.2909
283,1,267,1,240,195,45,1,1.4968
283,1,268,1,180,197,0,1,2.1424
283,1,269,1,240,218,-30,1,0.50098
283,1,270,1,240,185,0,1,1.3064
283,1,271,-1,240,206,45,0,3.8184
283,1,272,1,240,146,0,1,1.258
283,1,273,-1,240,154,45,0,0.50134
283,1,274,-1,180,214,-15,0,3.7838
283,1,275,1,240,155,15,1,2.1241
283,1,276,1,240,173,0,1,0.55447
283,1,277,1,180,127,30,1,3.2204
283,1,278,1,240,261,30,1,1.5719
283,1,279,1,240,153,30,1,0.97358
283,1,280,1,180,216,-15,1,2.8253
283,2,1,1,180,0,30,0,1.6623
283,2,2,1,180,0,-45,0,0.9026
283,2,3,1,240,0,30,1,0.70603
283,2,4,-1,240,0,15,0,1.268
283,2,5,1,180,0,-45,1,0.50088
283,2,6,-1,180,0,30,0,2.4333
283,2,7,1,240,0,-30,1,4.4671
283,2,8,-1,240,0,15,0,1.2391
283,2,9,1,180,0,-15,1,4.4508
283,2,10,1,240,0,30,1,1.2931
283,2,11,-1,240,0,-45,0,0.94881
283,2,12,1,240,0,15,1,0.50098
283,2,13,1,240,0,-45,0,0.65278
283,2,14,-1,180,0,-15,1,0.87868
283,2,15,-1,240,0,-15,1,0.67251
283,2,16,-1,240,0,-30,0,0.58284
283,2,17,1,180,0,15,1,3.1865
283,2,18,1,240,0,-30,0,0.50112
283,2,19,-1,180,0,30,1,0.70037
283,2,20,-1,180,0,-45,0,0.806
283,2,21,-1,180,0,-30,1,0.92827
283,2,22,-1,240,0,-15,1,0.66034
283,2,23,1,240,0,30,1,0.67196
283,2,24,-1,180,0,30,1,0.50147
283,2,25,1,240,0,-30,0,1.356
283,2,26,1,180,0,15,1,1.4038
283,2,27,-1,240,0,15,1,1.0596
283,2,28,-1,180,0,30,1,0.81262
283,2,29,1,180,0,-30,0,0.838
283,2,30,1,240,0,-15,1,0.68559
283,2,31,1,180,0,0,1,1.4136
283,2,32,1,180,0,-30,0,5.1055
283,2,33,1,180,0,30,1,2.4271
283,2,34,1,180,0,45,1,1.673
283,2,35,1,240,0,-15,0,0.83093
283,2,36,-1,180,0,45,1,0.97499
283,2,37,-1,180,0,45,1,0.81082
283,2,38,-1,240,0,-45,0,0.5754
283,2,39,1,180,0,45,1,0.83696
283,2,40,1,180,0,0,1,0.67513
283,2,41,1,180,0,-45,0,0.50561
283,2,42,-1,240,0,30,1,0.57289
283,2,43,-1,240,0,-15,0,1.5409
283,2,44,-1,240,0,-30,0,1.6745
283,2,45,-1,180,0,30,1,0.50098
283,2,46,-1,240,0,-45,0,0.65066
283,2,47,1,240,0,30,1,0.50091
283,2,48,1,240,0,30,1,0.77658
283,2,49,-1,180,0,30,1,1.0605
283,2,50,-1,240,0,-30,0,0.80611
283,2,51,-1,180,0,0,0,0.94617
283,2,52,-1,240,0,-45,0,0.50101
283,2,53,1,180,0,-15,0,2.4837
283,2,54,1,240,0,-45,0,0.80369
283,2,55,-1,240,0,0,1,1.0819
283,2,56,-1,240,0,45,0,0.73175
283,2,57,1,180,0,-45,0,0.71764
283,2,58,-1,240,0,0,1,1.0023
283,2,59,-1,240,0,45,1,0.70757
283,2,60,-1,180,0,15,1,0.67739
283,2,61,1,180,0,45,1,0.96544
283,2,62,-1,180,0,30,1,0.73762
283,2,63,-1,240,0,15,1,0.50136
283,2,64,1,240,0,-15,0,0.79798
283,2,65,-1,240,0,30,1,0.54744
283,2,66,-1,240,0,30,1,0.806
283,2,67,-1,180,0,-30,0,2.9422
283,2,68,-1,240,0,-45,0,0.53052
283,2,69,-1,240,0,0,1,1.2961
283,2,70,-1,240,0,30,1,0.7043
283,2,71,-1,240,0,30,1,0.80769
283,2,72,1,180,0,45,1,0.63785
283,2,73,1,240,0,0,1,1.1296
283,2,74,1,240,0,-30,0,0.50131
283,2,75,1,180,0,0,1,0.50135
283,2,76,1,240,0,-15,1,2.0135
283,2,77,-1,180,0,-45,0,0.81943
283,2,78,1,240,0,0,1,1.6135
283,2,79,1,240,0,15,0,1.8433
283,2,80,-1,180,0,0,1,0.50096
283,2,81,1,180,0,30,1,1.455
283,2,82,-1,240,0,45,0,0.97532
283,2,83,1,240,0,-45,0,0.52146
283,2,84,1,240,0,-45,0,0.50094
283,2,85,1,180,0,15,1,0.94092
283,2,86,-1,240,0,-45,0,0.85696
283,2,87,-1,240,0,15,1,0.53968
283,2,88,1,240,0,30,1,0.70109
283,2,89,1,180,0,15,1,1.3787
283,2,90,1,240,0,15,1,1.3047
283,2,91,-1,240,0,45,0,0.91324
283,2,92,-1,180,0,-15,0,1.1206
283,2,93,-1,240,0,-30,0,0.66676
283,2,94,-1,180,0,45,1,0.97458
283,2,95,-1,240,0,-45,1,0.89448
283,2,96,-1,180,0,-45,1,1.0061
283,2,97,1,240,0,15,1,0.86983
283,2,98,-1,180,0,-45,0,0.774
283,2,99,1,180,0,0,1,0.89595
283,2,100,-1,240,0,30,1,1.0326
283,2,101,1,180,0,-15,0,1.0602
283,2,102,1,240,0,-45,0,0.63451
283,2,103,-1,180,0,-45,0,0.82601
283,2,104,-1,240,0,30,1,0.50099
283,2,105,1,240,0,45,1,2.8596
283,2,106,1,240,0,45,1,0.96125
283,2,107,-1,180,0,45,1,0.66767
283,2,108,1,240,0,-45,0,0.67747
283,2,109,1,240,0,-45,0,0.68939
283,2,110,1,180,0,-15,0,0.50118
283,2,111,1,240,0,-30,0,3.5412
283,2,112,1,240,0,0,1,1.051
283,2,113,-1,180,0,15,1,1.9412
283,2,114,-1,240,0,15,1,1.2589
283,2,115,1,240,0,0,1,0.76463
283,2,116,1,240,0,15,1,0.50097
283,2,117,1,240,0,0,1,0.50107
283,2,118,-1,240,0,0,1,0.50101
283,2,119,1,180,0,-45,1,0.50102
283,2,120,1,180,0,45,1,1.0325
283,2,121,-1,240,0,-15,0,0.81855
283,2,122,-1,240,0,-15,0,1.0508
283,2,123,-1,180,0,-45,0,0.73079
283,2,124,-1,180,0,45,1,0.50106
283,2,125,1,240,0,-45,0,0.5311
283,2,126,1,180,0,30,1,2.1024
283,2,127,1,240,0,15,1,1.5781
283,2,128,1,180,0,-45,0,1.2863
283,2,129,-1,240,0,45,1,0.84793
283,2,130,1,240,0,45,1,1.5079
283,2,131,-1,240,0,45,1,0.9658
283,2,132,1,240,0,30,1,0.83159
283,2,133,1,240,0,15,1,0.58632
283,2,134,1,180,0,0,1,0.50093
283,2,135,1,180,0,30,1,1.8422
283,2,136,-1,180,0,-15,1,1.8333
283,2,137,1,240,0,45,1,1.6433
283,2,138,-1,180,0,0,1,8.1416
283,2,139,-1,180,0,-15,1,1.1809
283,2,140,1,180,0,-15,0,0.87911
283,2,141,1,180,0,15,1,1.2413
283,2,142,1,240,0,45,1,0.50099
283,2,143,1,180,0,30,1,0.50113
283,2,144,1,240,0,-15,1,0.52185
283,2,145,1,240,0,-15,0,1.7736
283,2,146,-1,240,0,-30,0,0.50108
283,2,147,1,240,0,0,1,2.0505
283,2,148,-1,180,0,0,1,0.50099
283,2,149,1,240,0,15,0,0.5013
283,2,150,-1,240,0,0,1,3.0804
283,2,151,-1,180,0,30,1,3.2726
283,2,152,-1,180,0,0,1,0.63648
283,2,153,-1,180,0,-30,0,0.59669
283,2,154,1,180,0,30,1,0.50135
283,2,155,1,240,0,-30,0,0.50134
283,2,156,-1,180,0,15,1,2.2978
283,2,157,1,240,0,45,1,0.51001
283,2,158,-1,240,0,0,1,0.50124
283,2,159,-1,180,0,45,1,0.50127
283,2,160,1,180,0,15,1,0.50135
283,2,161,1,240,0,45,1,1.6723
283,2,162,1,180,0,-30,0,0.50099
283,2,163,-1,240,0,30,1,3.6439
283,2,164,-1,240,0,0,1,0.50133
283,2,165,-1,240,0,-45,1,16.309
283,2,166,-1,180,0,-30,0,0.50109
283,2,167,-1,180,0,0,1,2.4728
283,2,168,-1,180,0,45,1,0.50099
283,2,169,1,180,0,0,1,0.50102
283,2,170,1,180,0,-45,0,0.50105
283,2,171,-1,180,0,0,1,0.50087
283,2,172,1,240,0,0,1,0.50102
283,2,173,-1,180,0,-30,0,0.50106
283,2,174,1,180,0,45,1,3.0543
283,2,175,-1,180,0,45,1,2.3822
283,2,176,-1,180,0,-45,0,1.5894
283,2,177,-1,180,0,15,1,0.50129
283,2,178,-1,240,0,0,1,0.50094
283,2,179,-1,180,0,15,1,0.50105
283,2,180,-1,180,0,-15,0,0.60134
283,2,181,-1,240,0,45,1,0.50104
283,2,182,1,240,0,30,1,2.4532
283,2,183,-1,180,0,15,1,0.50117
283,2,184,-1,240,0,0,1,0.50083
283,2,185,-1,240,0,-45,0,0.50084
283,2,186,1,180,0,-15,0,0.50096
283,2,187,-1,180,0,45,1,1.395
283,2,188,-1,180,0,15,1,0.53752
283,2,189,-1,180,0,15,1,0.51473
283,2,190,-1,240,0,30,1,0.50129
283,2,191,1,240,0,15,1,0.50128
283,2,192,1,240,0,-15,0,0.5013
283,2,193,1,180,0,0,1,0.50125
283,2,194,1,240,0,-30,0,1.7562
283,2,195,-1,180,0,-30,1,11.109
283,2,196,1,180,0,-30,0,0.50093
283,2,197,1,180,0,45,1,2.6144
283,2,198,-1,240,0,-30,0,1.8418
283,2,199,1,180,0,-15,0,0.50091
283,2,200,1,240,0,0,1,0.50091
283,2,201,-1,180,0,-15,0,0.50092
283,2,202,-1,240,0,15,1,8.2837
283,2,203,1,180,0,-30,0,0.50106
283,2,204,-1,180,0,15,1,0.50099
283,2,205,-1,180,0,45,1,0.50099
283,2,206,1,180,0,15,1,0.50129
283,2,207,1,180,0,45,1,0.50139
283,2,208,1,180,0,-15,0,0.50143
283,2,209,1,180,0,15,1,2.273
283,2,210,-1,180,0,-15,0,0.50137
283,2,211,1,180,0,30,1,1.537
283,2,212,-1,240,0,-15,0,0.58333
283,2,213,1,180,0,15,1,0.5013
283,2,214,1,240,0,0,1,0.66923
283,2,215,1,240,0,45,1,0.51107
283,2,216,-1,180,0,-45,0,0.50111
283,2,217,1,180,0,-30,0,0.50121
283,2,218,1,180,0,15,1,0.58283
283,2,219,-1,240,0,0,1,0.61754
283,2,220,1,240,0,0,1,0.50131
283,2,221,1,180,0,-45,0,0.50127
283,2,222,1,180,0,45,1,0.50116
283,2,223,1,180,0,-45,0,0.50158
283,2,224,-1,240,0,-15,0,0.50157
283,2,225,-1,180,0,0,1,1.4424
283,2,226,1,180,0,-15,0,0.50106
283,2,227,-1,240,0,15,0,0.66405
283,2,228,1,240,0,-30,0,0.50127
283,2,229,1,240,0,45,1,0.501
283,2,230,1,180,0,-30,0,3.3624
283,2,231,-1,240,0,-45,0,0.56821
283,2,232,1,240,0,45,1,0.50134
283,2,233,-1,240,0,-30,0,0.50141
283,2,234,1,240,0,-30,0,0.7281
283,2,235,1,240,0,-15,0,0.50133
283,2,236,-1,180,0,-15,0,0.50099
283,2,237,1,180,0,30,1,0.50131
283,2,238,1,240,0,30,1,0.54988
283,2,239,-1,180,0,15,1,0.63829
283,2,240,1,180,0,-30,0,5.1936
283,2,241,-1,240,0,-30,0,0.50127
283,2,242,1,240,0,-45,0,2.9588
283,2,243,1,240,0,-30,0,1.2289
283,2,244,1,180,0,-30,0,0.50143
283,2,245,-1,240,0,-15,0,0.50093
283,2,246,-1,240,0,-15,0,0.50105
283,2,247,-1,180,0,-30,0,0.50729
283,2,248,1,180,0,0,1,0.50111
283,2,249,1,240,0,30,1,1.2927
283,2,250,-1,180,0,30,1,0.56844
283,2,251,-1,180,0,-30,0,0.50095
283,2,252,-1,240,0,45,1,0.54063
283,2,253,-1,180,0,-15,0,0.50092
283,2,254,1,180,0,45,1,0.50083
283,2,255,1,240,0,-15,0,0.50084
283,2,256,1,240,0,15,1,0.62586
283,2,257,-1,180,0,0,1,0.54822
283,2,258,-1,180,0,0,1,0.50091
283,2,259,-1,180,0,-15,0,0.50091
283,2,260,-1,180,0,-45,0,0.50089
283,2,261,-1,180,0,-45,0,4.1337
283,2,262,1,240,0,-45,0,0.57001
283,2,263,-1,180,0,30,1,0.50104
283,2,264,1,180,0,-45,0,0.50096
283,2,265,1,180,0,0,1,1.1113
283,2,266,-1,180,0,-30,0,0.50083
283,2,267,-1,240,0,45,1,0.50086
283,2,268,1,180,0,-15,0,0.50143
283,2,269,-1,180,0,-30,0,0.50099
283,2,270,-1,240,0,-30,0,0.50104
283,2,271,-1,240,0,30,1,3.233
283,2,272,1,180,0,-30,0,0.50109
283,2,273,-1,240,0,45,1,5.4713
283,2,274,1,180,0,0,1,0.50092
283,2,275,-1,240,0,15,1,0.50122
283,2,276,1,180,0,30,1,0.50094
283,2,277,-1,240,0,-15,0,0.501
283,2,278,-1,240,0,-30,0,0.50101
283,2,279,1,240,0,-15,0,0.50099
283,2,280,-1,240,0,15,1,0.50091
283,3,1,-1,180,76,30,1,1.2623
283,3,2,-1,240,62,0,1,1.0287
283,3,3,-1,240,79,-30,1,0.81265
283,3,4,-1,180,95,0,1,0.5009
283,3,5,1,240,115,0,1,0.65022
283,3,6,-1,240,94,-15,0,1.1363
283,3,7,1,240,79,-45,0,1.7524
283,3,8,-1,240,81,0,0,1.2423
283,3,9,-1,180,102,15,1,0.81193
283,3,10,1,240,114,-15,0,0.52006
283,3,11,1,240,87,30,0,0.52439
283,3,12,-1,240,103,0,0,0.50103
283,3,13,-1,240,119,-45,1,1.4496
283,3,14,-1,240,119,45,1,0.50103
283,3,15,1,180,100,-45,0,1.4017
283,3,16,-1,180,111,-45,0,0.60148
283,3,17,-1,180,96,0,0,0.50094
283,3,18,1,240,108,30,1,0.5478
283,3,19,1,240,126,30,1,0.50097
283,3,20,-1,240,122,0,1,2.3914
283,3,21,1,240,139,-15,1,0.67534
283,3,22,-1,240,144,45,1,0.50096
283,3,23,-1,240,149,15,1,4.7614
283,3,24,1,240,135,15,1,0.50112
283,3,25,1,180,102,-30,1,0.73117
283,3,26,-1,180,92,30,1,0.53369
283,3,27,1,180,108,-45,0,0.50099
283,3,28,1,240,116,-45,0,0.525
283,3,29,-1,180,123,30,1,1.715
283,3,30,-1,240,130,-45,0,0.50104
283,3,31,-1,240,100,-30,0,0.50113
283,3,32,-1,180,114,30,1,0.7545
283,3,33,1,240,130,-30,1,2.4863
283,3,34,-1,180,107,-30,0,0.50103
283,3,35,-1,180,82,45,1,3.6242
283,3,36,1,180,127,45,1,0.5009
283,3,37,-1,180,112,0,1,2.176
283,3,38,-1,240,133,-30,0,0.50112
283,3,39,-1,240,93,15,0,0.50108
283,3,40,-1,240,100,30,1,1.9764
283,3,41,1,180,101,15,1,2.7123
283,3,42,1,240,109,-30,1,0.69446
283,3,43,1,180,92,-15,1,0.51645
283,3,44,-1,240,105,45,1,0.94991
283,3,45,1,180,103,30,1,2.5776
283,3,46,1,180,116,45,0,0.56992
283,3,47,1,180,104,30,0,0.50108
283,3,48,-1,240,113,0,1,3.2133
283,3,49,-1,180,99,0,0,0.50119
283,3,50,-1,180,79,45,1,0.501
283,3,51,-1,180,87,0,0,0.53145
283,3,52,-1,240,102,-30,0,0.6372
283,3,53,1,240,98,0,1,0.50123
283,3,54,-1,240,75,-15,1,0.58352
283,3,55,1,180,95,-30,0,0.50146
283,3,56,1,180,63,45,1,0.50132
283,3,57,1,180,55,30,1,2.8125
283,3,58,-1,240,15,-30,0,0.50087
283,3,59,-1,180,96,-45,0,0.51861
283,3,60,-1,180,77,15,1,0.72072
283,3,61,1,180,92,-15,1,0.53675
283,3,62,1,240,81,30,1,0.62877
283,3,63,-1,180,67,0,1,0.90225
283,3,64,1,240,87,0,1,0.65668
283,3,65,1,240,0,-15,1,1.1216
283,3,66,1,240,15,30,1,0.75327
283,3,67,-1,240,75,-45,0,0.7006
283,3,68,-1,240,81,-30,0,0.50108
283,3,69,1,180,46,0,1,0.60505
283,3,70,1,180,74,30,1,1.6049
283,3,71,1,240,18,0,0,1.993
283,3,72,-1,240,81,45,1,0.61833
283,3,73,1,240,71,30,1,0.50098
283,3,74,1,180,74,-30,0,0.50091
283,3,75,1,240,0,0,1,0.50091
283,3,76,-1,240,90,30,1,0.50114
283,3,77,-1,180,31,-45,0,3.0577
283,3,78,1,240,0,0,1,0.71206
283,3,79,-1,240,68,-15,1,0.5458
283,3,80,1,180,23,-45,0,0.50094
283,3,81,-1,180,74,15,1,0.64414
283,3,82,-1,180,93,30,1,0.69878
283,3,83,1,180,34,-30,0,0.62086
283,3,84,1,240,68,-45,0,0.50107
283,3,85,1,240,88,-45,0,0.50084
283,3,86,1,240,59,-30,0,3.0307
283,3,87,-1,180,85,-45,0,2.245
283,3,88,-1,240,96,-45,0,0.50548
283,3,89,-1,180,72,-15,1,0.52257
283,3,90,1,180,68,-15,1,0.64654
283,3,91,-1,180,35,30,1,0.58663
283,3,92,1,240,84,0,1,0.5013
283,3,93,1,180,80,0,1,0.61252
283,3,94,-1,240,72,45,1,0.54039
283,3,95,1,240,63,-45,0,0.50128
283,3,96,1,180,72,-15,1,2.7241
283,3,97,1,180,33,0,1,0.50104
283,3,98,-1,180,80,-30,0,0.52869
283,3,99,1,240,82,-30,1,0.65784
283,3,100,1,180,75,-30,0,0.56011
283,3,101,-1,240,81,30,1,0.50079
283,3,102,1,180,74,-45,0,0.50095
283,3,103,1,180,0,0,1,0.50111
283,3,104,-1,180,123,-15,1,0.55091
283,3,105,-1,240,104,30,1,0.57554
283,3,106,1,240,95,30,1,2.6935
283,3,107,-1,240,102,45,1,2.7192
283,3,108,1,240,106,-15,1,0.90503
283,3,109,1,240,78,-15,1,0.67493
283,3,110,1,180,79,-15,1,0.73428
283,3,111,1,240,117,-15,1,0.75643
283,3,112,1,240,112,15,1,0.50455
283,3,113,1,240,100,-15,1,0.50134
283,3,114,-1,180,104,-30,0,2.6142
283,3,115,-1,180,53,-30,0,0.50151
283,3,116,-1,180,94,15,0,2.504
283,3,117,-1,180,42,-45,0,0.50105
283,3,118,-1,240,75,30,1,2.5817
283,3,119,1,240,81,0,1,3.3079
283,3,120,1,180,94,15,1,0.51619
283,3,121,-1,180,73,-30,0,0.57018
283,3,122,-1,180,69,0,1,3.4113
283,3,123,-1,240,93,-45,0,0.50608
283,3,124,-1,180,70,-15,1,0.50153
283,3,125,-1,180,0,-15,1,0.50132
283,3,126,1,180,106,-45,0,0.58375
283,3,127,-1,240,34,0,1,2.6012
283,3,128,1,180,54,0,0,0.61769
283,3,129,1,180,57,45,1,2.4333
283,3,130,-1,180,72,30,1,0.79547
283,3,131,-1,180,91,15,1,0.79491
283,3,132,-1,180,47,-30,0,0.79887
283,3,133,-1,240,44,15,1,0.50156
283,3,134,1,180,28,45,1,0.55655
283,3,135,1,240,90,-30,0,2.3544
283,3,136,-1,180,85,-15,1,0.63686
283,3,137,-1,240,59,-15,1,0.58278
283,3,138,1,240,0,15,1,1.0124
283,3,139,-1,240,41,-45,0,0.60265
283,3,140,1,240,21,-45,0,0.50091
283,3,141,1,180,35,45,1,0.50099
283,3,142,-1,240,50,0,1,2.1699
283,3,143,1,180,15,-30,0,0.74236
283,3,144,1,180,15,15,1,0.68007
283,3,145,1,240,72,45,1,0.50088
283,3,146,1,180,69,45,1,0.50094
283,3,147,1,240,65,45,1,0.50086
283,3,148,-1,180,15,-30,0,0.51471
283,3,149,1,180,0,45,1,0.501
283,3,150,-1,180,0,15,1,2.7577
283,3,151,1,180,65,15,1,0.55375
283,3,152,1,180,69,45,1,0.50155
283,3,153,1,240,15,45,1,0.56741
283,3,154,1,180,47,15,1,0.54764
283,3,155,-1,180,74,15,1,0.55404
283,3,156,-1,180,36,45,1,0.54551
283,3,157,-1,240,15,-45,0,0.57913
283,3,158,1,240,0,15,1,0.59765
283,3,159,1,240,0,15,1,4.4292
283,3,160,1,240,47,45,1,0.50114
283,3,161,1,180,0,-15,1,2.6669
283,3,162,-1,180,106,-45,0,0.50159
283,3,163,1,240,61,-45,0,0.51731
283,3,164,1,240,50,15,1,0.50134
283,3,165,1,240,15,-15,1,0.50117
283,3,166,1,180,81,-15,1,0.53855
283,3,167,1,180,68,45,1,0.50119
283,3,168,-1,180,72,45,1,0.50109
283,3,169,1,240,51,45,1,2.8605
283,3,170,-1,180,107,45,1,0.63045
283,3,171,-1,240,53,-30,0,0.53938
283,3,172,1,240,58,45,1,0.50137
283,3,173,1,180,40,15,1,0.50119
283,3,174,-1,180,63,45,1,0.92625
283,3,175,1,240,96,-45,0,0.50125
283,3,176,-1,240,67,45,1,2.0781
283,3,177,1,240,60,30,1,0.59623
283,3,178,1,180,55,-15,0,0.59041
283,3,179,-1,180,70,-30,0,0.7157
283,3,180,-1,180,78,-30,0,0.61581
283,3,181,-1,240,15,-30,1,2.1013
283,3,182,1,240,18,-45,0,0.5009
283,3,183,-1,240,0,-15,1,0.50102
283,3,184,1,180,0,-15,1,0.69065
283,3,185,1,240,73,-30,1,0.50095
283,3,186,-1,180,0,-45,1,0.50087
283,3,187,1,180,83,-30,0,0.6173
283,3,188,-1,180,100,45,1,0.55206
283,3,189,-1,180,92,0,1,0.57656
283,3,190,1,180,110,-45,0,0.53033
283,3,191,1,180,0,15,1,1.016
283,3,192,1,240,85,30,1,0.50092
283,3,193,1,240,76,45,1,0.5013
283,3,194,-1,240,77,-45,0,0.56441
283,3,195,1,180,68,30,1,2.5938
283,3,196,-1,240,78,30,1,0.90366
283,3,197,-1,180,51,-15,1,0.50128
283,3,198,-1,180,55,-45,0,0.50102
283,3,199,1,180,79,-45,0,0.50125
283,3,200,-1,180,55,-15,1,2.2332
283,3,201,-1,180,72,45,1,0.50136
283,3,202,-1,240,72,30,1,0.51312
283,3,203,1,240,0,-30,1,0.74733
283,3,204,-1,240,72,15,1,0.72105
283,3,205,-1,240,97,0,1,0.50129
283,3,206,-1,180,0,30,1,0.55701
283,3,207,1,180,24,30,1,0.5009
283,3,208,1,240,0,45,1,0.59099
283,3,209,-1,180,16,30,0,0.50125
283,3,210,-1,180,55,15,1,0.5012
283,3,211,-1,180,114,-30,0,0.82253
283,3,212,1,180,39,0,1,0.50133
283,3,213,-1,180,41,-15,1,2.2761
283,3,214,1,180,84,-30,0,0.60258
283,3,215,1,180,30,-15,0,0.62426
283,3,216,-1,240,88,-45,0,0.55437
283,3,217,1,240,0,-15,1,0.55803
283,3,218,-1,180,58,0,1,0.52477
283,3,219,-1,240,50,45,1,0.65001
283,3,220,-1,180,4,45,1,0.53106
283,3,221,1,180,0,0,1,0.6877
283,3,222,1,240,3,-30,1,0.68771
283,3,223,-1,180,108,15,1,0.66275
283,3,224,-1,240,88,45,1,0.58436
283,3,225,-1,240,100,15,1,0.62189
283,3,226,1,180,127,-30,0,0.50131
283,3,227,1,240,91,-30,0,0.57785
283,3,228,1,180,101,0,1,0.50107
283,3,229,-1,240,15,15,1,0.50129
283,3,230,1,180,86,0,1,2.3793
283,3,231,-1,240,62,0,1,0.5013
283,3,232,-1,240,124,45,1,0.51793
283,3,233,1,180,65,30,0,0.50103
283,3,234,-1,180,0,45,1,0.58753
283,3,235,1,180,87,0,1,0.50099
283,3,236,-1,240,99,15,1,1.617
283,3,237,-1,240,89,-15,1,0.66889
283,3,238,1,180,53,15,1,0.50103
283,3,239,-1,180,75,-45,0,0.56906
283,3,240,-1,240,15,30,1,0.50107
283,3,241,1,240,0,0,1,0.50093
283,3,242,-1,180,0,0,1,0.58113
283,3,243,-1,240,60,15,1,0.60054
283,3,244,1,180,55,-45,0,0.59496
283,3,245,1,240,64,15,1,3.1604
283,3,246,-1,240,51,30,1,0.50088
283,3,247,1,180,0,-30,1,2.1345
283,3,248,-1,240,46,-15,1,0.50091
283,3,249,-1,180,77,-15,1,0.67404
283,3,250,1,180,41,-45,0,0.69231
283,3,251,-1,240,0,-45,1,0.56827
283,3,252,-1,240,35,15,1,2.2402
283,3,253,1,240,61,45,1,0.76711
283,3,254,1,180,0,30,1,0.601
283,3,255,-1,180,0,15,1,0.52108
283,3,256,1,240,0,-45,1,0.54068
283,3,257,1,240,15,15,1,2.4167
283,3,258,1,180,15,-45,0,0.50112
283,3,259,1,240,0,30,1,1.7741
283,3,260,1,240,15,15,1,0.5009
283,3,261,1,180,37,15,1,0.58852
283,3,262,-1,240,80,15,1,0.51829
283,3,263,-1,180,71,-15,1,0.52625
283,3,264,-1,240,108,-15,1,2.1733
283,3,265,-1,240,100,30,1,0.50088
283,3,266,-1,180,94,30,1,0.5011
283,3,267,-1,240,60,-30,0,0.68116
283,3,268,-1,180,79,-45,0,0.55142
283,3,269,-1,240,59,-30,0,0.50358
283,3,270,1,180,90,15,1,0.50095
283,3,271,1,180,97,30,1,0.61315
283,3,272,1,240,97,-30,0,0.50095
283,3,273,-1,240,63,-15,0,1.8248
283,3,274,1,240,95,15,1,3.3925
283,3,275,-1,240,88,-15,1,0.71657
283,3,276,1,180,16,30,1,0.52278
283,3,277,1,240,46,45,1,0.50105
283,3,278,1,240,65,0,1,0.50097
283,3,279,-1,240,0,0,1,0.54306
283,3,280,1,240,42,-15,1,1.7583
283,4,1,-1,240,0,-30,1,1.0514
283,4,2,1,180,0,-15,0,0.72965
283,4,3,1,240,0,0,1,0.83943
283,4,4,-1,180,0,0,1,1.1429
283,4,5,-1,240,0,15,1,0.63142
283,4,6,1,180,0,0,1,0.50092
283,4,7,-1,240,0,15,1,0.52115
283,4,8,1,240,0,-15,0,0.69886
283,4,9,-1,180,0,0,1,0.50087
283,4,10,-1,180,0,-15,0,0.79444
283,4,11,1,240,0,-45,0,0.50084
283,4,12,-1,240,0,-45,0,0.62873
283,4,13,1,180,0,-30,0,0.51884
283,4,14,-1,240,0,45,1,0.50093
283,4,15,-1,180,0,0,1,0.63283
283,4,16,1,180,0,15,1,0.50097
283,4,17,1,180,0,45,1,0.50085
283,4,18,-1,180,0,30,1,0.50085
283,4,19,-1,240,0,-45,0,0.52163
283,4,20,1,180,0,15,1,0.50088
283,4,21,-1,180,0,30,1,1.9722
283,4,22,1,180,0,-45,0,0.50089
283,4,23,-1,180,0,0,1,0.79781
283,4,24,1,240,0,45,1,0.50088
283,4,25,1,180,0,-30,0,1.8516
283,4,26,-1,180,0,0,1,0.50092
283,4,27,1,180,0,-15,0,0.65788
283,4,28,1,180,0,-45,0,0.6602
283,4,29,1,240,0,-45,0,0.65762
283,4,30,-1,180,0,-15,0,0.50819
283,4,31,-1,180,0,15,1,0.55992
283,4,32,-1,180,0,0,1,0.50085
283,4,33,-1,240,0,-45,0,0.53916
283,4,34,1,180,0,0,1,1.5711
283,4,35,1,180,0,-15,0,0.59964
283,4,36,1,240,0,0,1,0.50114
283,4,37,1,240,0,0,1,2.0667
283,4,38,1,240,0,-30,0,0.7092
283,4,39,1,180,0,0,1,0.5009
283,4,40,-1,180,0,-30,0,0.5312
283,4,41,-1,240,63,15,1,0.68621
283,4,42,-1,240,0,-45,0,0.60511
283,4,43,1,240,0,15,1,0.66632
283,4,44,-1,180,0,15,1,0.98437
283,4,45,-1,180,0,15,1,0.50132
283,4,46,1,180,0,-30,1,0.89212
283,4,47,1,180,0,15,1,0.73414
283,4,48,1,180,0,0,1,0.55848
283,4,49,1,180,0,45,1,0.68395
283,4,50,1,180,0,0,1,0.56163
283,4,51,-1,180,0,30,1,0.58236
283,4,52,1,180,0,-45,0,0.65801
283,4,53,-1,180,0,-45,0,0.77179
283,4,54,1,240,0,0,1,0.53783
283,4,55,-1,240,0,-30,0,0.50137
283,4,56,1,180,0,15,1,0.52968
283,4,57,1,240,0,45,1,0.60953
283,4,58,-1,240,0,45,1,0.56968
283,4,59,1,240,0,30,1,0.70968
283,4,60,1,180,0,-30,0,0.73782
283,4,61,-1,180,0,15,1,0.76688
283,4,62,-1,180,0,-15,1,0.6267
283,4,63,-1,180,0,45,1,0.50137
283,4,64,1,240,0,-15,0,0.50126
283,4,65,-1,180,0,-15,0,0.58094
283,4,66,-1,240,0,45,1,3.3128
283,4,67,-1,180,0,30,1,2.3481
283,4,68,-1,180,0,-30,0,0.64593
283,4,69,-1,180,0,-45,0,2.0957
283,4,70,-1,180,0,45,1,0.50119
283,4,71,1,180,0,45,1,0.52394
283,4,72,-1,240,0,-30,0,0.55201
283,4,73,1,240,0,45,1,0.5009
283,4,74,-1,180,0,-45,0,0.50117
283,4,75,-1,240,0,-45,0,0.54555
283,4,76,-1,180,0,15,1,0.50119
283,4,77,-1,240,0,45,1,0.58362
283,4,78,-1,240,0,45,1,0.55801
283,4,79,-1,240,0,-30,0,0.50118
283,4,80,-1,240,0,15,1,0.54155
283,4,81,-1,240,0,-15,0,0.50163
283,4,82,1,240,0,45,1,0.56948
283,4,83,1,240,0,-15,0,0.50138
283,4,84,1,240,0,15,1,0.58104
283,4,85,1,180,0,45,1,0.53581
283,4,86,1,240,0,-30,0,0.80057
283,4,87,1,240,0,-30,0,0.59906
283,4,88,-1,240,0,-15,0,1.1044
283,4,89,1,240,0,-30,0,0.51541
283,4,90,1,240,0,-30,0,0.55902
283,4,91,1,180,0,0,1,0.65642
283,4,92,-1,240,0,-15,0,0.59073
283,4,93,-1,240,0,-15,0,0.7194
283,4,94,-1,240,0,30,1,0.57923
283,4,95,-1,180,0,-45,0,0.52056
283,4,96,1,240,0,15,1,0.59718
283,4,97,1,180,0,15,1,0.71807
283,4,98,-1,240,0,-30,0,0.65608
283,4,99,1,180,0,30,1,0.53254
283,4,100,1,240,0,-45,0,0.50146
283,4,101,-1,240,0,45,1,0.57309
283,4,102,-1,180,0,45,1,0.50134
283,4,103,-1,240,0,0,1,0.58011
283,4,104,1,180,0,-45,0,0.58998
283,4,105,-1,240,0,-45,0,0.69037
283,4,106,-1,240,0,30,1,0.69625
283,4,107,1,180,0,-30,0,0.50129
283,4,108,-1,240,0,-45,1,0.86995
283,4,109,1,240,0,45,1,0.50133
283,4,110,-1,180,0,15,1,0.76322
283,4,111,-1,180,0,-30,0,0.71771
283,4,112,-1,180,0,-45,1,0.52536
283,4,113,1,240,0,15,1,0.50101
283,4,114,-1,180,0,30,1,0.62108
283,4,115,1,240,0,-15,0,1.9236
283,4,116,1,180,0,-30,0,0.66949
283,4,117,1,240,0,15,1,0.50156
283,4,118,-1,240,0,45,1,0.76522
283,4,119,-1,180,0,-45,0,0.58346
283,4,120,-1,240,0,0,1,0.60108
283,4,121,1,180,0,-30,0,0.83841
283,4,122,1,240,0,0,1,0.50139
283,4,123,-1,180,0,-15,0,0.50122
283,4,124,-1,240,0,45,1,0.61848
283,4,125,1,180,0,0,1,0.57129
283,4,126,1,240,0,-30,0,0.565
283,4,127,1,180,0,-45,0,0.56473
283,4,128,-1,240,0,-30,0,0.63048
283,4,129,-1,240,0,30,1,0.85064
283,4,130,1,240,0,0,1,0.58657
283,4,131,-1,180,0,-30,0,0.67863
283,4,132,-1,180,0,0,1,2.2344
283,4,133,-1,180,0,-15,0,3.0571
283,4,134,1,240,0,-45,0,0.50148
283,4,135,-1,240,0,30,1,7.1939
283,4,136,1,240,0,0,1,0.50621
283,4,137,1,240,0,-15,1,0.5013
283,4,138,1,240,0,-45,0,0.51031
283,4,139,1,180,0,-30,0,0.51413
283,4,140,-1,240,0,-45,0,0.56333
283,4,141,-1,240,0,45,1,2.669
283,4,142,-1,180,0,-15,0,0.51155
283,4,143,-1,180,0,15,1,0.55567
283,4,144,1,240,0,45,1,0.59298
283,4,145,1,240,0,15,1,0.54332
283,4,146,1,180,0,-30,0,1.004
283,4,147,1,180,0,-45,0,0.77464
283,4,148,1,180,0,45,1,0.55924
283,4,149,1,240,0,-30,0,0.68898
283,4,150,-1,180,0,-45,0,1.0813
283,4,151,1,180,0,-15,0,0.71061
283,4,152,-1,240,0,-30,0,0.60703
283,4,153,1,240,0,15,1,0.50133
283,4,154,-1,180,0,-45,0,1.0564
283,4,155,1,240,0,-15,0,0.7165
283,4,156,1,240,0,45,0,0.52127
283,4,157,1,180,0,30,1,0.51707
283,4,158,-1,240,0,-30,0,0.50123
283,4,159,1,180,0,15,1,0.50096
283,4,160,1,180,0,-45,0,0.50135
283,4,161,1,240,0,30,1,2.1218
283,4,162,-1,240,0,15,1,0.50092
283,4,163,1,180,0,30,1,0.96234
283,4,164,1,180,0,-45,0,0.58241
283,4,165,-1,240,0,30,1,0.61364
283,4,166,1,240,0,30,1,0.50103
283,4,167,1,240,0,45,1,0.50103
283,4,168,1,180,0,15,1,0.50113
283,4,169,-1,240,0,30,1,0.56944
283,4,170,-1,180,0,-30,0,0.74186
283,4,171,-1,180,0,45,1,1.0353
283,4,172,1,240,0,0,1,0.6414
283,4,173,-1,240,0,0,1,0.61172
283,4,174,1,240,0,-15,0,0.87496
283,4,175,-1,240,0,30,1,0.69174
283,4,176,1,240,0,-30,0,0.56724
283,4,177,1,180,0,30,1,0.58724
283,4,178,1,240,0,-30,0,0.68711
283,4,179,-1,240,0,0,1,1.9487
283,4,180,-1,180,0,-45,0,0.71333
283,4,181,1,180,0,0,1,3.2527
283,4,182,1,240,0,15,1,0.73519
283,4,183,-1,240,0,15,1,0.55678
283,4,184,-1,180,0,45,1,0.71743
283,4,185,-1,240,0,15,1,0.84489
283,4,186,-1,240,0,-30,0,0.81532
283,4,187,-1,180,220,30,0,1.2732
283,4,188,-1,180,0,-45,0,0.84026
283,4,189,1,240,0,45,1,0.61038
283,4,190,1,180,0,-15,0,0.55266
283,4,191,-1,180,0,0,1,0.50131
283,4,192,-1,240,0,15,1,0.50128
283,4,193,1,240,0,15,1,0.51306
283,4,194,1,180,0,15,1,0.74627
283,4,195,1,240,0,-30,1,0.70044
283,4,196,-1,240,0,-15,0,0.51675
283,4,197,-1,180,0,15,0,0.50132
283,4,198,-1,180,0,-30,0,0.89048
283,4,199,-1,240,0,0,1,0.58708
283,4,200,-1,180,0,30,1,0.73171
283,4,201,1,180,0,30,1,0.77584
283,4,202,-1,180,0,-30,0,0.78601
283,4,203,-1,240,0,-15,0,0.64788
283,4,204,-1,180,0,-15,0,0.86232
283,4,205,1,240,0,15,1,0.65948
283,4,206,-1,240,0,30,1,0.86312
283,4,207,1,180,0,-15,0,0.82342
283,4,208,-1,180,0,45,1,0.61914
283,4,209,1,240,0,-45,0,0.52917
283,4,210,1,240,0,-15,0,1.1453
283,4,211,1,240,0,30,1,0.50136
283,4,212,1,240,0,45,1,0.53133
283,4,213,-1,240,0,45,1,0.72474
283,4,214,1,180,0,15,1,0.62716
283,4,215,1,240,0,30,1,0.63128
283,4,216,-1,180,0,-30,0,0.88668
283,4,217,1,240,0,-15,0,0.55863
283,4,218,-1,240,0,15,1,0.50125
283,4,219,1,240,0,30,1,0.59094
283,4,220,1,240,0,0,1,0.54634
283,4,221,-1,240,0,0,1,0.51329
283,4,222,1,180,0,-15,1,0.64647
283,4,223,1,240,0,-45,0,0.61868
283,4,224,-1,240,0,30,1,0.50133
283,4,225,-1,180,0,-15,0,0.7601
283,4,226,1,240,0,-45,0,0.85188
283,4,227,1,180,0,-30,0,1.0542
283,4,228,-1,180,0,45,1,4.0307
283,4,229,-1,180,0,45,1,0.50483
283,4,230,1,240,0,-15,0,0.53015
283,4,231,-1,180,0,30,1,0.50106
283,4,232,1,240,0,30,1,0.63812
283,4,233,-1,240,0,0,1,0.9643
283,4,234,-1,240,0,0,1,0.50136
283,4,235,1,180,0,-15,0,0.50095
283,4,236,-1,180,0,45,1,3.6774
283,4,237,1,180,0,30,1,0.55045
283,4,238,-1,240,0,30,1,0.50089
283,4,239,1,180,0,-45,0,0.60765
283,4,240,1,240,0,30,1,1.771
283,4,241,-1,240,0,-15,0,0.54122
283,4,242,1,180,0,15,1,0.50764
283,4,243,-1,180,0,30,1,0.56954
283,4,244,-1,180,0,0,1,0.50133
283,4,245,1,180,0,0,1,0.5013
283,4,246,-1,180,0,15,1,0.80679
283,4,247,-1,180,0,-15,0,0.50089
283,4,248,1,180,0,-15,0,0.77441
283,4,249,-1,180,0,45,1,0.54324
283,4,250,-1,240,0,-15,0,0.53103
283,4,251,1,240,0,-45,0,0.55914
283,4,252,-1,240,0,0,1,0.60749
283,4,253,-1,240,0,15,1,0.51899
283,4,254,1,180,0,0,1,0.50168
283,4,255,-1,240,0,-15,0,0.68237
283,4,256,1,240,0,0,1,0.50095
283,4,257,-1,240,0,-30,0,0.61046
283,4,258,1,180,0,30,1,0.69037
283,4,259,1,240,0,30,1,0.67693
283,4,260,-1,180,0,0,1,0.64809
283,4,261,-1,180,0,-30,0,0.73666
283,4,262,1,180,0,30,1,0.59173
283,4,263,-1,180,0,15,1,4.3839
283,4,264,-1,240,0,0,1,0.52006
283,4,265,1,180,0,30,1,0.59988
283,4,266,1,180,0,-15,0,0.52572
283,4,267,1,180,0,45,1,0.50138
283,4,268,-1,240,0,-45,0,0.54572
283,4,269,-1,180,0,30,1,0.53217
283,4,270,1,180,0,45,1,1.1875
283,4,271,1,180,0,-45,0,0.63721
283,4,272,1,180,0,45,1,0.54702
283,4,273,1,180,0,45,1,0.50101
283,4,274,-1,180,0,-30,0,0.50375
283,4,275,1,180,0,30,1,0.501
283,4,276,1,240,0,-45,1,0.88288
283,4,277,1,180,0,45,1,0.50104
283,4,278,-1,240,0,-15,0,0.50104
283,4,279,1,240,0,30,1,0.60541
283,4,280,-1,240,0,-45,1,1.3127
287,1,1,-1,240,15,15,1,1.7103
287,1,2,-1,240,81,-30,1,0.50128
287,1,3,1,240,79,-15,1,3.5405
287,1,4,-1,180,94,-30,0,0.50136
287,1,5,-1,180,91,-15,1,0.58656
287,1,6,1,180,106,30,1,0.50126
287,1,7,1,240,124,-30,0,0.58627
287,1,8,1,180,131,-45,0,0.50107
287,1,9,1,240,128,30,1,0.50143
287,1,10,1,240,142,15,1,0.50146
287,1,11,1,180,141,45,1,0.50133
287,1,12,1,180,137,-30,0,0.5011
287,1,13,1,240,110,15,0,0.50125
287,1,14,-1,240,141,0,0,0.50132
287,1,15,-1,240,119,30,1,2.0121
287,1,16,1,240,154,30,1,0.50099
287,1,17,-1,240,173,30,1,0.53205
287,1,18,-1,180,154,0,1,0.51739
287,1,19,1,240,147,-15,1,0.50114
287,1,20,-1,240,169,0,1,2.1697
287,1,21,1,240,163,0,1,0.50122
287,1,22,-1,240,177,15,1,1.8328
287,1,23,1,180,135,-45,0,0.50108
287,1,24,1,180,147,-45,0,0.50095
287,1,25,1,180,153,-30,1,2.0046
287,1,26,1,180,155,-45,0,0.50113
287,1,27,-1,240,150,-15,1,0.50103
287,1,28,1,240,0,0,1,1.8505
287,1,29,1,240,165,0,1,0.54094
287,1,30,-1,180,147,45,0,0.59893
287,1,31,1,180,136,0,1,0.5011
287,1,32,-1,180,135,-45,0,0.50092
287,1,33,-1,240,161,0,1,0.56677
287,1,34,1,180,207,-15,1,0.5586
287,1,35,1,240,210,-45,0,0.67453
287,1,36,1,240,165,-45,0,0.55657
287,1,37,-1,180,158,-45,0,0.50104
287,1,38,-1,240,161,15,1,0.50127
287,1,39,-1,180,178,30,1,0.93234
287,1,40,1,240,171,0,1,0.50151
287,1,41,-1,240,147,0,1,2.5089
287,1,42,1,180,170,-30,1,0.51872
287,1,43,1,180,186,-45,0,0.50133
287,1,44,1,240,129,-30,0,0.50139
287,1,45,-1,240,152,45,1,1.9176
287,1,46,1,180,195,-45,0,0.50091
287,1,47,1,240,171,30,1,1.9197
287,1,48,-1,180,164,45,1,2.4754
287,1,49,-1,180,137,0,1,0.50132
287,1,50,1,180,161,-30,1,0.50144
287,1,51,1,180,157,45,1,2.8254
287,1,52,1,240,167,-15,1,0.50109
287,1,53,1,180,148,45,1,0.50114
287,1,54,-1,240,163,-15,1,0.50101
287,1,55,-1,180,165,30,1,0.50087
287,1,56,1,240,164,0,1,0.50085
287,1,57,-1,240,162,45,1,0.50086
287,1,58,1,240,102,0,1,0.50088
287,1,59,1,240,218,45,1,0.50099
287,1,60,-1,240,202,-45,1,0.86484
287,1,61,1,180,159,45,1,0.50448
287,1,62,1,240,156,-45,0,2.4008
287,1,63,-1,240,145,-45,0,0.80886
287,1,64,-1,180,133,45,1,2.2661
287,1,65,1,240,167,45,1,0.64626
287,1,66,-1,180,161,-30,0,0.61418
287,1,67,-1,180,136,-30,0,0.58811
287,1,68,-1,240,160,15,1,1.788
287,1,69,1,240,152,30,1,0.56397
287,1,70,-1,180,170,-45,0,0.50107
287,1,71,1,180,147,-30,0,0.50102
287,1,72,1,180,159,15,1,0.50115
287,1,73,-1,240,147,15,1,0.50115
287,1,74,-1,240,161,-15,1,0.50106
287,1,75,-1,240,173,-30,1,0.50112
287,1,76,1,180,178,30,1,0.50122
287,1,77,1,180,184,15,1,0.50143
287,1,78,-1,240,168,30,1,0.51992
287,1,79,1,240,158,0,1,0.65631
287,1,80,1,180,196,-30,0,1.7115
287,1,81,1,240,88,15,0,0.50092
287,1,82,-1,240,160,-15,1,0.50115
287,1,83,1,180,113,0,1,0.50159
287,1,84,1,240,147,0,1,0.50104
287,1,85,1,180,189,45,1,0.66524
287,1,86,1,240,202,-30,1,0.50137
287,1,87,1,180,231,30,0,0.55905
287,1,88,1,180,129,15,0,0.50127
287,1,89,1,240,135,-15,1,1.6607
287,1,90,-1,180,138,-45,0,0.50118
287,1,91,1,240,128,-45,0,1.5588
287,1,92,-1,180,147,-15,1,0.50157
287,1,93,-1,180,173,0,1,0.50166
287,1,94,-1,240,135,-15,1,0.51286
287,1,95,-1,180,139,30,1,0.50146
287,1,96,1,180,144,-15,1,0.50134
287,1,97,-1,240,163,-45,0,0.50133
287,1,98,1,180,160,-30,0,0.50134
287,1,99,-1,240,164,45,1,0.50095
287,1,100,-1,240,153,-15,1,0.50094
287,1,101,-1,240,163,-15,1,2.9179
287,1,102,1,180,171,0,1,0.69249
287,1,103,1,240,140,15,1,0.81892
287,1,104,-1,240,175,0,1,0.52997
287,1,105,1,240,153,0,1,0.50132
287,1,106,-1,180,170,15,1,0.50136
287,1,107,-1,180,174,45,1,0.81602
287,1,108,1,180,167,15,1,1.8599
287,1,109,-1,180,159,15,1,0.50128
287,1,110,-1,240,170,30,1,0.52825
287,1,111,1,180,149,-15,1,2.9414
287,1,112,1,240,148,45,1,0.50104
287,1,113,-1,240,168,30,1,0.50099
287,1,114,-1,240,159,-30,1,0.63969
287,1,115,-1,240,159,-30,1,0.50107
287,1,116,-1,180,160,-15,1,0.50089
287,1,117,1,240,162,-30,1,0.50094
287,1,118,-1,180,191,45,1,0.56416
287,1,119,1,180,172,45,1,0.52332
287,1,120,-1,180,178,30,1,2.6875
287,1,121,-1,240,129,-30,0,1.6146
287,1,122,1,240,149,45,1,0.50094
287,1,123,-1,180,137,-45,0,0.50101
287,1,124,-1,180,164,15,1,1.6291
287,1,125,1,180,181,-15,1,0.53865
287,1,126,1,240,172,-30,1,0.50135
287,1,127,1,180,161,-45,0,0.501
287,1,128,-1,240,168,30,1,0.50135
287,1,129,1,180,143,30,1,0.50121
287,1,130,-1,240,156,-45,0,0.50102
287,1,131,1,180,169,-15,1,0.51047
287,1,132,1,240,173,-30,1,0.50137
287,1,133,-1,180,161,-45,0,1.7549
287,1,134,1,180,140,-30,0,0.50136
287,1,135,-1,240,73,0,1,0.5014
287,1,136,-1,240,183,30,1,0.50103
287,1,137,-1,180,154,-15,1,0.58188
287,1,138,-1,240,170,15,1,0.50091
287,1,139,1,240,156,45,1,0.50118
287,1,140,1,240,194,15,1,0.50126
287,1,141,-1,240,165,-15,1,1.7216
287,1,142,-1,180,163,-15,1,0.5299
287,1,143,1,180,199,15,1,0.58379
287,1,144,1,180,181,15,1,0.50127
287,1,145,-1,240,177,30,1,0.50103
287,1,146,1,180,201,-45,0,0.501
287,1,147,-1,180,180,30,1,0.52036
287,1,148,-1,180,169,-30,1,0.51761
287,1,149,1,240,178,45,1,0.5009
287,1,150,-1,240,178,-15,1,0.62711
287,1,151,-1,240,141,15,1,0.50085
287,1,152,-1,240,170,-30,0,0.50088
287,1,153,-1,180,35,-15,0,0.50161
287,1,154,1,240,180,30,1,1.6847
287,1,155,1,240,186,-15,1,0.59718
287,1,156,1,240,177,-45,0,0.50084
287,1,157,1,180,212,45,1,0.5012
287,1,158,-1,180,177,0,1,1.7611
287,1,159,-1,240,179,45,1,0.50099
287,1,160,-1,180,148,-30,0,0.50108
287,1,161,-1,180,182,30,1,0.56094
287,1,162,-1,240,195,-45,0,0.50159
287,1,163,-1,240,236,45,1,0.53279
287,1,164,1,180,251,0,1,0.50239
287,1,165,1,180,171,15,1,0.50123
287,1,166,1,240,234,-15,1,0.50087
287,1,167,1,180,189,45,1,0.55265
287,1,168,1,180,221,-30,1,0.53819
287,1,169,-1,240,225,15,1,0.59606
287,1,170,-1,180,183,-15,1,0.50089
287,1,171,1,180,158,0,1,3.6962
287,1,172,-1,180,195,-45,0,0.58416
287,1,173,1,240,163,-15,1,0.50093
287,1,174,-1,180,178,0,1,0.55206
287,1,175,-1,240,187,0,1,0.50102
287,1,176,1,180,188,45,1,0.54783
287,1,177,1,180,166,30,1,0.50102
287,1,178,-1,180,180,45,1,0.50143
287,1,179,-1,180,200,15,1,2.4894
287,1,180,1,240,166,-30,0,0.50118
287,1,181,-1,180,176,0,1,0.50122
287,1,182,-1,180,164,-45,0,0.50083
287,1,183,-1,180,171,45,1,2.9412
287,1,184,-1,240,184,-30,1,0.51558
287,1,185,1,240,168,-15,1,0.50783
287,1,186,1,240,168,15,1,0.50091
287,1,187,1,180,183,30,1,0.50117
287,1,188,-1,240,213,-45,1,0.50131
287,1,189,1,180,183,45,1,0.50092
287,1,190,1,180,243,0,1,0.55853
287,1,191,-1,240,210,-30,1,0.50126
287,1,192,1,240,182,-45,0,0.62655
287,1,193,1,240,183,45,1,0.50095
287,1,194,-1,240,191,-45,1,0.58893
287,1,195,1,240,231,30,1,0.51223
287,1,196,-1,240,211,-30,1,0.85854
287,1,197,1,240,214,30,1,0.50087
287,1,198,-1,240,176,0,1,0.50097
287,1,199,-1,180,202,-15,1,0.50089
287,1,200,1,180,189,0,1,1.7384
287,1,201,1,240,166,-45,0,0.50829
287,1,202,1,240,138,15,1,0.50137
287,1,203,1,180,101,30,1,2.0796
287,1,204,1,240,158,45,1,0.50403
287,1,205,1,180,183,0,1,0.76208
287,1,206,1,180,166,15,1,0.50094
287,1,207,-1,180,166,15,1,0.52766
287,1,208,-1,180,163,45,1,0.50092
287,1,209,1,180,203,-45,0,0.50111
287,1,210,-1,180,174,-45,0,0.50101
287,1,211,-1,180,160,30,1,1.5875
287,1,212,-1,180,160,-45,0,0.54167
287,1,213,1,240,173,15,1,1.5236
287,1,214,1,240,144,30,1,0.501
287,1,215,-1,180,161,-30,1,0.50718
287,1,216,1,240,178,-45,0,0.50101
287,1,217,-1,180,205,15,1,0.50091
287,1,218,1,240,195,-15,1,0.501
287,1,219,1,180,177,-15,1,0.53299
287,1,220,-1,240,190,-15,1,0.51155
287,1,221,-1,240,169,45,1,0.50148
287,1,222,-1,240,162,-45,0,0.50141
287,1,223,-1,240,195,45,1,0.50123
287,1,224,-1,180,178,0,1,0.50161
287,1,225,-1,240,199,0,1,0.50112
287,1,226,1,180,220,0,1,0.50096
287,1,227,-1,240,244,-45,1,0.92493
287,1,228,1,180,242,15,1,0.65657
287,1,229,1,240,202,-45,1,0.50137
287,1,230,1,180,189,30,1,0.58062
287,1,231,1,240,213,45,1,0.50132
287,1,232,-1,180,221,0,1,0.50129
287,1,233,1,240,168,-45,0,1.8278
287,1,234,-1,240,138,15,1,0.50114
287,1,235,-1,180,176,15,1,0.50112
287,1,236,-1,180,165,0,1,0.50136
287,1,237,1,240,155,-30,1,0.501
287,1,238,1,240,167,30,1,0.50107
287,1,239,-1,180,178,45,1,0.50136
287,1,240,-1,180,163,30,1,1.7924
287,1,241,-1,180,173,-30,1,0.54627
287,1,242,1,240,187,0,0,0.50127
287,1,243,-1,240,116,-30,1,0.5459
287,1,244,-1,240,172,45,1,0.50111
287,1,245,-1,240,148,30,1,0.50114
287,1,246,1,240,146,15,1,0.50114
287,1,247,1,180,171,-15,1,0.50136
287,1,248,1,180,149,-45,0,0.50143
287,1,249,-1,180,149,-30,0,1.549
287,1,250,-1,240,164,-45,0,0.50145
287,1,251,-1,240,165,45,1,0.50163
287,1,252,-1,180,140,45,1,0.50088
287,1,253,-1,180,151,30,1,4.3185
287,1,254,1,180,105,-30,1,0.50094
287,1,255,-1,180,155,30,1,0.50084
287,1,256,1,180,185,-15,1,0.50101
287,1,257,1,240,152,30,1,0.50098
287,1,258,1,180,159,-15,1,0.50111
287,1,259,1,240,124,15,1,0.50083
287,1,260,-1,240,173,45,1,0.50101
287,1,261,-1,180,160,0,1,0.50117
287,1,262,-1,180,149,15,1,1.6109
287,1,263,1,180,141,0,1,1.4125
287,1,264,-1,180,127,-15,1,0.5014
287,1,265,-1,180,167,-30,1,0.50131
287,1,266,-1,180,188,-15,1,1.7305
287,1,267,-1,240,155,0,1,1.5056
287,1,268,1,180,174,30,1,0.501
287,1,269,1,240,194,-30,1,0.50139
287,1,270,-1,180,162,15,1,0.50105
287,1,271,1,180,165,30,1,1.5419
287,1,272,1,240,156,-30,1,0.50132
287,1,273,-1,240,161,15,1,1.7616
287,1,274,1,240,178,-15,1,0.60206
287,1,275,1,180,145,15,1,0.50134
287,1,276,-1,180,160,-30,1,0.5513
287,1,277,1,240,147,45,1,0.50126
287,1,278,-1,180,131,15,1,0.50093
287,1,279,-1,240,144,30,1,0.50084
287,1,280,1,180,160,-15,1,0.50087
287,2,1,-1,180,0,-45,0,0.50108
287,2,2,1,240,180,-30,0,0.54474
287,2,3,-1,240,0,-30,0,0.50094
287,2,4,-1,240,0,-45,0,0.65454
287,2,5,1,240,0,45,1,0.50121
287,2,6,1,180,0,0,1,1.9459
287,2,7,-1,240,0,-30,0,0.70612
287,2,8,-1,240,0,15,1,0.50093
287,2,9,1,180,0,45,1,0.501
287,2,10,-1,180,0,30,1,0.55419
287,2,11,1,180,152,-30,0,0.50112
287,2,12,-1,180,0,-30,0,0.50116
287,2,13,-1,240,0,15,1,0.59377
287,2,14,1,240,0,-45,0,0.50092
287,2,15,-1,180,0,45,1,1.4773
287,2,16,-1,180,0,0,1,0.58554
287,2,17,-1,180,0,-30,0,0.50109
287,2,18,-1,240,0,0,1,0.78544
287,2,19,-1,180,0,15,1,0.54578
287,2,20,-1,180,0,-30,0,0.50094
287,2,21,1,180,0,-15,0,0.50094
287,2,22,-1,240,0,30,1,0.50114
287,2,23,1,240,0,0,1,0.50122
287,2,24,-1,240,0,-15,0,0.50098
287,2,25,1,240,0,15,1,0.71528
287,2,26,1,180,0,15,1,0.50099
287,2,27,-1,180,0,-15,0,0.50091
287,2,28,-1,180,174,-30,0,0.50094
287,2,29,-1,240,0,0,1,0.52883
287,2,30,-1,240,0,45,1,0.50091
287,2,31,-1,180,0,-45,0,1.3384
287,2,32,1,240,0,45,1,0.50133
287,2,33,1,180,0,0,0,0.59084
287,2,34,-1,180,0,0,1,0.50123
287,2,35,-1,180,0,0,0,0.50134
287,2,36,1,180,100,15,1,0.50119
287,2,37,-1,240,0,45,1,0.50137
287,2,38,1,240,0,30,1,0.50137
287,2,39,-1,180,0,45,1,0.7085
287,2,40,1,240,0,45,1,0.53303
287,2,41,-1,240,171,-15,1,0.50139
287,2,42,1,180,0,45,1,0.50116
287,2,43,1,180,0,45,1,0.60002
287,2,44,-1,180,0,-15,0,1.3137
287,2,45,-1,180,0,0,1,0.50098
287,2,46,1,180,0,-30,0,0.63553
287,2,47,-1,180,0,0,1,0.50092
287,2,48,-1,240,0,30,1,0.50093
287,2,49,1,180,0,15,1,0.50363
287,2,50,1,180,0,0,1,0.54537
287,2,51,-1,180,0,-45,0,0.51335
287,2,52,-1,240,0,-30,0,0.5011
287,2,53,-1,180,149,15,1,0.50092
287,2,54,-1,240,0,45,1,1.7873
287,2,55,1,180,190,30,1,0.58557
287,2,56,1,180,0,15,1,0.50089
287,2,57,-1,180,0,0,1,0.50112
287,2,58,-1,180,0,45,1,0.6927
287,2,59,1,240,0,45,1,0.50096
287,2,60,1,180,0,0,1,0.50091
287,2,61,-1,180,0,-15,0,0.50102
287,2,62,1,180,0,-45,1,0.50099
287,2,63,1,180,0,15,1,0.50102
287,2,64,-1,180,0,-15,0,0.50114
287,2,65,1,240,177,-30,0,0.50101
287,2,66,-1,180,0,45,1,1.8942
287,2,67,1,180,0,-45,0,0.5009
287,2,68,1,240,0,-45,0,0.5847
287,2,69,-1,180,0,15,1,2.3163
287,2,70,1,240,192,15,1,0.50092
287,2,71,1,240,0,15,1,1.2542
287,2,72,1,240,149,-15,0,0.63795
287,2,73,-1,180,0,-45,0,0.52058
287,2,74,1,240,187,-15,0,0.50087
287,2,75,1,180,198,-15,0,0.50098
287,2,76,-1,180,0,-30,0,0.66607
287,2,77,1,240,0,45,1,0.69815
287,2,78,1,240,0,0,1,0.51046
287,2,79,1,180,0,0,1,0.50093
287,2,80,-1,240,194,-45,0,0.58969
287,2,81,-1,180,212,30,1,0.50092
287,2,82,1,240,0,30,1,0.52758
287,2,83,-1,180,0,15,1,0.501
287,2,84,1,180,0,0,1,0.6772
287,2,85,1,240,0,30,1,0.50109
287,2,86,-1,180,188,15,1,0.90351
287,2,87,-1,240,0,-45,0,0.50131
287,2,88,-1,240,0,-45,0,0.50135
287,2,89,-1,180,0,15,1,2.1379
287,2,90,-1,180,0,30,1,0.5012
287,2,91,-1,180,0,45,1,0.50141
287,2,92,-1,240,172,15,1,3.4873
287,2,93,-1,180,195,-30,0,0.63305
287,2,94,1,240,183,-15,0,0.50154
287,2,95,1,240,168,-45,0,0.53484
287,2,96,1,180,0,0,1,0.50102
287,2,97,-1,180,0,0,1,0.50132
287,2,98,1,180,0,-30,0,0.64872
287,2,99,1,240,0,30,1,0.7146
287,2,100,1,240,0,0,1,0.66834
287,2,101,1,240,0,-30,0,0.59733
287,2,102,-1,240,0,-15,0,0.73657
287,2,103,1,180,167,15,1,0.71867
287,2,104,-1,180,133,30,1,0.50142
287,2,105,-1,240,0,-45,0,2.3764
287,2,106,1,240,0,30,1,0.93656
287,2,107,-1,240,0,30,1,0.50113
287,2,108,1,180,0,-45,0,0.68415
287,2,109,-1,180,0,-45,0,1.0358
287,2,110,-1,240,0,45,1,0.6418
287,2,111,-1,240,197,15,1,0.50124
287,2,112,-1,180,0,-45,0,2.1013
287,2,113,-1,240,137,-30,0,0.74173
287,2,114,1,240,0,-30,0,0.57605
287,2,115,1,180,0,-15,0,0.72961
287,2,116,-1,240,0,-15,0,0.79128
287,2,117,1,180,0,-30,0,0.75731
287,2,118,-1,240,0,15,1,0.60415
287,2,119,1,180,0,45,1,0.61505
287,2,120,-1,180,0,-15,0,0.83759
287,2,121,-1,180,0,45,1,0.50114
287,2,122,-1,180,0,0,1,0.50102
287,2,123,1,240,0,-30,0,1.6599
287,2,124,-1,240,0,0,1,0.50091
287,2,125,1,180,249,-45,0,0.7435
287,2,126,-1,240,0,30,1,0.5013
287,2,127,1,240,0,15,1,0.50131
287,2,128,-1,180,0,30,1,0.50117
287,2,129,1,240,0,-15,0,0.50125
287,2,130,1,240,0,-30,0,0.72042
287,2,131,1,180,223,30,1,0.50096
287,2,132,1,180,90,-30,1,1.0566
287,2,133,-1,180,0,0,1,0.84869
287,2,134,-1,240,0,-15,0,0.50101
287,2,135,1,180,0,-15,0,0.50102
287,2,136,1,240,0,-45,1,0.50116
287,2,137,1,180,0,0,1,0.53425
287,2,138,1,180,0,30,1,0.51822
287,2,139,-1,240,177,15,1,0.50092
287,2,140,1,180,202,-15,0,0.59486
287,2,141,1,180,0,-45,0,0.55249
287,2,142,-1,180,0,15,1,0.51207
287,2,143,-1,240,0,-45,0,0.71019
287,2,144,1,180,209,-30,0,0.7015
287,2,145,1,180,0,45,1,0.54039
287,2,146,-1,240,163,15,1,0.5013
287,2,147,-1,240,166,-30,0,0.50114
287,2,148,-1,240,233,15,1,0.56272
287,2,149,1,180,229,-15,0,2.0094
287,2,150,1,180,215,-30,0,0.81389
287,2,151,1,240,0,45,1,0.78195
287,2,152,1,180,0,30,1,0.56374
287,2,153,1,240,176,15,1,2.22
287,2,154,-1,240,178,-45,0,0.54805
287,2,155,-1,180,209,30,1,0.62118
287,2,156,1,180,206,30,1,0.6831
287,2,157,-1,180,0,-30,1,0.51883
287,2,158,1,180,0,15,1,2.9947
287,2,159,-1,180,160,30,1,0.55686
287,2,160,1,180,0,45,1,0.70831
287,2,161,1,240,0,15,1,0.5016
287,2,162,1,180,0,-30,0,1.9721
287,2,163,1,180,0,15,1,0.59594
287,2,164,-1,180,0,-15,0,0.50092
287,2,165,1,240,0,-30,0,0.5013
287,2,166,1,180,0,-15,0,0.50094
287,2,167,-1,240,0,0,1,0.50115
287,2,168,1,240,0,-45,0,0.501
287,2,169,1,240,193,30,1,0.50125
287,2,170,1,180,0,-45,0,1.0547
287,2,171,1,240,0,-30,0,0.88066
287,2,172,-1,240,0,45,1,0.53126
287,2,173,1,180,160,30,1,0.67642
287,2,174,1,240,0,-45,0,0.70352
287,2,175,-1,180,0,-45,0,0.68657
287,2,176,-1,240,0,45,1,0.67117
287,2,177,-1,180,0,15,1,2.2013
287,2,178,1,180,0,15,1,0.78051
287,2,179,1,240,0,0,1,0.50122
287,2,180,-1,240,156,0,1,0.60708
287,2,181,1,240,0,-15,1,0.64254
287,2,182,1,180,0,15,1,0.72841
287,2,183,-1,180,0,-45,0,0.50103
287,2,184,1,240,0,30,1,0.75047
287,2,185,-1,180,0,15,1,1.2774
287,2,186,-1,240,0,-30,0,0.72992
287,2,187,-1,240,167,-30,0,0.63177
287,2,188,1,240,0,0,1,0.58398
287,2,189,-1,240,203,-15,0,3.5296
287,2,190,1,240,0,30,1,0.5215
287,2,191,-1,180,0,0,1,1.4312
287,2,192,1,240,0,-15,0,0.78111
287,2,193,-1,240,177,45,1,0.50138
287,2,194,-1,180,0,-15,0,1.6913
287,2,195,-1,240,0,-45,0,0.71413
287,2,196,-1,240,0,-15,0,0.65542
287,2,197,-1,240,202,-15,0,0.50143
287,2,198,-1,240,0,-30,1,0.66131
287,2,199,-1,240,0,0,1,0.89487
287,2,200,1,180,0,-45,0,0.50135
287,2,201,-1,180,170,-45,0,0.82282
287,2,202,1,240,0,-45,0,0.50134
287,2,203,1,240,0,15,1,1.1911
287,2,204,1,180,172,30,1,0.55687
287,2,205,1,240,0,-15,1,0.69544
287,2,206,-1,240,0,-15,0,0.50719
287,2,207,1,180,0,30,1,0.50128
287,2,208,-1,240,0,30,1,0.52908
287,2,209,1,240,200,15,1,0.50096
287,2,210,-1,240,0,-30,1,1.6322
287,2,211,1,180,250,30,1,0.59047
287,2,212,-1,180,0,45,1,0.50099
287,2,213,-1,240,188,-15,0,0.50118
287,2,214,-1,240,0,30,1,1.9135
287,2,215,-1,240,202,-45,0,0.50118
287,2,216,1,180,0,-15,0,0.50096
287,2,217,1,180,0,45,1,0.52191
287,2,218,1,240,0,-30,0,0.50097
287,2,219,-1,240,187,30,1,2.0553
287,2,220,-1,240,195,45,1,0.50099
287,2,221,-1,180,244,45,1,0.53901
287,2,222,-1,240,0,0,1,0.62681
287,2,223,1,180,0,-30,0,0.50134
287,2,224,1,180,0,-15,0,0.5017
287,2,225,1,240,164,45,1,2.9025
287,2,226,1,180,0,0,1,4.2298
287,2,227,-1,240,146,-30,0,0.50097
287,2,228,-1,240,0,15,1,1.3078
287,2,229,-1,240,0,15,1,2.0076
287,2,230,-1,180,162,45,1,0.50103
287,2,231,-1,240,0,30,1,0.50084
287,2,232,1,180,0,-45,0,0.50114
287,2,233,1,240,0,0,1,1.3917
287,2,234,1,240,15,45,1,0.63544
287,2,235,-1,240,0,30,1,2.2433
287,2,236,1,240,0,-30,0,0.57342
287,2,237,1,180,0,30,1,0.50105
287,2,238,1,240,0,-15,0,0.8414
287,2,239,1,180,0,45,1,0.50093
287,2,240,-1,240,0,-45,0,0.53119
287,2,241,-1,180,0,-45,0,0.51943
287,2,242,1,240,0,-15,0,1.129
287,2,243,-1,180,0,30,1,2.791
287,2,244,1,240,0,15,1,0.61901
287,2,245,1,240,0,0,1,0.50097
287,2,246,-1,180,0,30,1,0.50092
287,2,247,1,240,0,45,1,0.50091
287,2,248,1,180,0,45,0,1.7273
287,2,249,1,240,0,45,1,2.6998
287,2,250,-1,180,0,-15,0,0.50136
287,2,251,-1,180,0,30,1,0.61642
287,2,252,1,240,0,0,1,0.5399
287,2,253,1,240,0,-45,0,1.5199
287,2,254,-1,180,0,-30,0,1.8155
287,2,255,-1,180,0,15,1,0.50133
287,2,256,-1,240,0,45,1,0.71116
287,2,257,1,180,0,-45,0,2.1373
287,2,258,1,240,0,0,1,0.60362
287,2,259,1,240,0,30,1,1.873
287,2,260,-1,180,0,-15,0,1.203
287,2,261,-1,240,0,0,1,1.7336
287,2,262,-1,180,176,-30,0,0.50324
287,2,263,1,240,0,-45,0,1.599
287,2,264,1,180,0,45,1,3.8668
287,2,265,-1,240,0,30,1,0.78643
287,2,266,1,180,0,-15,1,0.50098
287,2,267,1,240,0,15,1,0.53088
287,2,268,1,240,0,0,1,2.0686
287,2,269,-1,180,0,45,1,0.65472
287,2,270,-1,240,0,0,1,0.50111
287,2,271,-1,240,0,0,1,1.5305
287,2,272,-1,240,0,45,1,1.9338
287,2,273,-1,180,0,-15,0,0.50101
287,2,274,1,240,0,-45,0,0.50106
287,2,275,1,180,0,-45,0,0.57841
287,2,276,1,180,0,-30,0,1.4257
287,2,277,1,240,0,30,1,0.70565
287,2,278,1,180,0,0,1,0.50114
287,2,279,-1,180,0,-30,0,0.50109
287,2,280,1,240,157,-15,0,0.5015
287,3,1,-1,240,92,15,1,1.1517
287,3,2,-1,240,130,-30,0,0.50124
287,3,3,1,240,120,-15,0,0.75743
287,3,4,-1,180,129,-30,0,0.50124
287,3,5,-1,180,137,-15,1,0.50091
287,3,6,1,180,131,30,1,1.9695
287,3,7,1,240,137,-30,1,0.50081
287,3,8,1,180,149,-45,0,0.50113
287,3,9,1,240,169,30,1,0.50093
287,3,10,1,240,142,15,1,1.6372
287,3,11,1,180,151,45,1,0.50089
287,3,12,1,180,159,-30,0,1.497
287,3,13,1,240,152,15,1,1.9646
287,3,14,-1,240,159,0,1,0.60698
287,3,15,-1,240,149,30,1,0.50084
287,3,16,1,240,149,30,1,1.5245
287,3,17,-1,240,158,30,1,0.5009
287,3,18,-1,180,157,0,1,0.50094
287,3,19,1,240,146,-15,0,0.50087
287,3,20,-1,240,106,0,1,0.50109
287,3,21,1,240,169,0,0,0.64239
287,3,22,-1,240,163,15,1,0.50088
287,3,23,1,180,184,-45,0,0.50089
287,3,24,1,180,161,-45,0,0.50091
287,3,25,1,180,170,-30,0,0.50088
287,3,26,1,180,178,-45,0,0.50109
287,3,27,-1,240,152,-15,1,1.5502
287,3,28,1,240,160,0,1,0.50095
287,3,29,1,240,179,0,1,0.50086
287,3,30,-1,180,185,45,1,0.50106
287,3,31,1,180,162,0,1,0.58773
287,3,32,-1,180,161,-45,0,0.50114
287,3,33,-1,240,171,0,1,0.50088
287,3,34,1,180,163,-15,1,0.50087
287,3,35,1,240,161,-45,0,0.55956
287,3,36,1,240,152,-45,0,0.501
287,3,37,-1,180,152,-45,0,0.50099
287,3,38,-1,240,159,15,1,0.50094
287,3,39,-1,180,154,30,1,0.50096
287,3,40,1,240,185,0,1,1.8391
287,3,41,-1,240,155,0,1,0.50108
287,3,42,1,180,167,-30,0,0.50122
287,3,43,1,180,190,-45,0,0.61313
287,3,44,1,240,158,-30,1,0.52957
287,3,45,-1,240,186,45,1,1.4891
287,3,46,1,180,185,-45,0,0.51509
287,3,47,1,240,200,30,1,0.59549
287,3,48,-1,180,194,45,1,1.6308
287,3,49,-1,180,174,0,1,0.50095
287,3,50,1,180,222,-30,1,0.50088
287,3,51,1,180,204,45,1,1.6426
287,3,52,1,240,206,-15,1,0.50126
287,3,53,1,180,176,45,1,0.52662
287,3,54,-1,240,188,-15,1,1.4946
287,3,55,-1,180,195,30,1,0.50132
287,3,56,1,240,172,0,1,0.50125
287,3,57,-1,240,188,45,1,1.4269
287,3,58,1,240,176,0,1,0.60238
287,3,59,1,240,172,45,1,0.50094
287,3,60,-1,240,174,-45,0,0.54258
287,3,61,1,180,190,45,1,0.50094
287,3,62,1,240,183,-45,0,0.50082
287,3,63,-1,240,181,-45,1,0.50138
287,3,64,-1,180,193,45,1,0.50129
287,3,65,1,240,190,45,1,0.54559
287,3,66,-1,180,194,-30,0,0.50107
287,3,67,-1,180,193,-30,0,0.62533
287,3,68,-1,240,160,15,1,0.56164
287,3,69,1,240,193,30,1,0.50134
287,3,70,-1,180,211,-45,0,0.51
287,3,71,1,180,199,-30,0,0.50099
287,3,72,1,180,190,15,1,0.50124
287,3,73,-1,240,191,15,1,0.50134
287,3,74,-1,240,182,-15,1,0.50136
287,3,75,-1,240,187,-30,1,1.4692
287,3,76,1,180,199,30,1,0.50137
287,3,77,1,180,207,15,1,0.50105
287,3,78,-1,240,187,30,1,0.50104
287,3,79,1,240,179,0,0,0.87317
287,3,80,1,180,219,-30,1,0.50088
287,3,81,1,240,221,15,1,0.50124
287,3,82,-1,240,230,-15,1,0.56707
287,3,83,1,180,183,0,1,0.52733
287,3,84,1,240,195,0,1,1.7027
287,3,85,1,180,198,45,1,0.50095
287,3,86,1,240,188,-30,1,0.50121
287,3,87,1,180,202,30,1,0.50081
287,3,88,1,180,208,15,1,0.50101
287,3,89,1,240,184,-15,1,0.50107
287,3,90,-1,180,193,-45,0,0.51232
287,3,91,1,240,189,-45,0,0.62016
287,3,92,-1,180,219,-15,1,0.50138
287,3,93,-1,180,237,0,1,0.5012
287,3,94,-1,240,199,-15,1,0.50081
287,3,95,-1,180,176,30,1,0.50116
287,3,96,1,180,175,-15,1,0.50083
287,3,97,-1,240,205,-45,0,0.52594
287,3,98,1,180,207,-30,1,0.50113
287,3,99,-1,240,215,45,1,0.5077
287,3,100,-1,240,171,-15,1,1.4133
287,3,101,-1,240,230,-15,1,1.5556
287,3,102,1,180,209,0,1,0.57796
287,3,103,1,240,172,15,1,0.62933
287,3,104,-1,240,191,0,1,0.50154
287,3,105,1,240,226,0,1,0.50131
287,3,106,-1,180,200,15,1,1.774
287,3,107,-1,180,217,45,1,0.5013
287,3,108,1,180,212,15,1,0.50137
287,3,109,-1,180,244,15,1,0.50095
287,3,110,-1,240,173,30,1,1.5509
287,3,111,1,180,213,-15,1,0.50115
287,3,112,1,240,205,45,1,0.50109
287,3,113,-1,240,182,30,1,1.5606
287,3,114,-1,240,192,-30,1,0.50096
287,3,115,-1,240,208,-30,1,0.50089
287,3,116,-1,180,216,-15,1,0.50112
287,3,117,1,240,240,-30,1,0.50113
287,3,118,-1,180,197,45,1,0.50105
287,3,119,1,180,169,45,1,0.5009
287,3,120,-1,180,203,30,1,1.5801
287,3,121,-1,240,229,-30,1,0.50131
287,3,122,1,240,208,45,1,0.50128
287,3,123,-1,180,224,-45,0,0.50124
287,3,124,-1,180,209,15,1,0.50098
287,3,125,1,180,229,-15,1,0.50129
287,3,126,1,240,206,-30,1,0.50113
287,3,127,1,180,225,-45,0,0.57058
287,3,128,-1,240,213,30,1,1.4256
287,3,129,1,180,176,30,1,0.57806
287,3,130,-1,240,195,-45,0,0.50127
